,time,temperature,pressure,acc_x,acc_y,acc_z,mag_x,mag_y,mag_z
0,0.0,0.0,0.0,0.0,0.0,0.0,0.0,0.0,0.0
1,7.152557373046875e-06,27.934959778096527,929.7754544850825,-19.27595124,1.5298374,-1.91229675,-43.81818181818183,-8.181818181818182,-7.448979591836735
2,0.0397181510925293,27.94820330105722,929.6581617767324,-19.27595124,1.5298374,-1.91229675,-43.81818181818183,-8.181818181818182,-7.448979591836735
3,0.07496404647827148,27.957032293081284,928.9826664008907,-18.931737825,1.185623985,-3.28915041,-42.90909090909091,-24.090909090909086,-5.3061224489795915
4,0.11260533332824707,27.957032293081284,928.6604674212977,-18.931737825,1.185623985,-3.28915041,-42.90909090909091,-24.090909090909086,-14.591836734693874
5,0.1474611759185791,27.970275746192783,928.5323195227544,-18.931737825,1.185623985,-3.28915041,-42.18181818181817,-37.27272727272727,-14.591836734693874
6,0.17656803131103518,27.97910469165072,928.3853384022833,-18.43454067,-1.4150995949999998,-3.0596748,-42.18181818181817,-37.27272727272727,-14.591836734693874
7,0.21202516555786127,27.987933618482202,927.8191453550772,-18.43454067,-1.4150995949999998,-3.0596748,-41.454545454545446,-39.81818181818183,-30.61224489795918
8,0.24701619148254395,27.97910469165072,927.4469788442194,-18.43454067,-1.4150995949999998,-3.0596748,-41.454545454545446,-39.81818181818183,-30.61224489795918
9,0.27982306480407715,27.974690221250054,927.0263027898841,-17.66962197,1.568083335,-0.420705285,-42.090909090909086,-32.18181818181818,-43.97959183673469
10,0.3225688934326172,27.974690221250054,926.9872048301248,-17.66962197,1.568083335,-0.420705285,-42.27272727272727,-18.272727272727277,-47.6530612244898
11,0.35613107681274414,27.970275746192783,926.8120180042023,-17.66962197,1.568083335,-0.420705285,-42.27272727272727,-18.272727272727277,-47.6530612244898
12,0.3897171020507813,27.97910469165072,926.177076812857,-15.98680083,-0.038245935,-1.4150995949999998,-43.0,-4.636363636363637,-43.265306122448976
13,0.4250459671020508,27.974690221250054,925.8439889449368,-15.98680083,-0.038245935,-1.4150995949999998,-43.0,-4.636363636363637,-43.265306122448976
14,0.4634642601013185,27.970275746192783,925.7266990300217,-15.98680083,-0.038245935,-1.4150995949999998,-43.72727272727273,2.272727272727273,-30.510204081632647
15,0.4979791641235352,27.970275746192783,925.4921200294734,-15.374865869999997,-0.38245935,-1.109132115,-43.72727272727273,2.272727272727273,-30.510204081632647
16,0.5330612659454345,27.970275746192783,925.0245370004212,-15.374865869999997,-0.38245935,-1.109132115,-43.63636363636363,0.909090909090909,-15.30612244897959
17,0.5708730220794677,27.965861266478893,924.6132524171594,-15.374865869999997,0.038245935,-1.568083335,-43.63636363636363,0.909090909090909,-15.30612244897959
18,0.6046361923217773,27.970275746192783,924.2817451988619,-14.648193105,0.038245935,-1.568083335,-43.27272727272727,-8.818181818181818,-6.428571428571428
19,0.6384530067443848,27.95261779939756,924.0471816664507,-14.648193105,0.038245935,-1.568083335,-43.27272727272727,-8.818181818181818,-6.428571428571428
20,0.6726222038269042,27.9614467821084,923.7531699225133,-13.041863835,0.0,-0.726672765,-43.090909090909086,-22.272727272727277,-4.795918367346937
21,0.7100021839141846,27.95261779939756,923.3825909812531,-13.041863835,0.0,-0.726672765,-43.090909090909086,-22.272727272727277,-4.795918367346937
22,0.7485291957855223,27.957032293081284,923.2950394950492,-13.041863835,0.0,-0.726672765,-42.27272727272727,-34.36363636363636,-11.63265306122449
23,0.7875940799713134,27.94820330105722,923.0213900864381,-12.429928875,-0.53544309,-2.60072358,-42.27272727272727,-40.36363636363636,-23.16326530612245
24,0.8231580257415771,27.94820330105722,922.7774744891304,-12.429928875,-0.53544309,-2.60072358,-42.27272727272727,-40.36363636363636,-23.16326530612245
25,0.8603451251983641,27.95261779939756,922.425646705572,-12.429928875,-0.53544309,-2.60072358,-41.72727272727273,-39.18181818181818,-35.510204081632644
26,0.8967571258544922,27.95261779939756,922.2301878960959,-12.00922359,0.45895122,-1.30036179,-41.72727272727273,-39.18181818181818,-35.510204081632644
27,0.9356520175933836,27.94820330105722,922.01602349398,-12.00922359,0.45895122,-1.30036179,-41.72727272727273,-31.45454545454546,-45.71428571428572
28,0.9711101055145264,27.934959778096527,921.586026587239,-12.00922359,0.45895122,-1.30036179,-41.72727272727273,-31.45454545454546,-45.71428571428572
29,1.005421161651611,27.943788798060268,921.5078457285766,-11.206058955,0.0,-1.644575205,-42.545454545454554,-20.181818181818176,-48.36734693877551
30,1.036316156387329,27.94820330105722,921.3514843777025,-11.206058955,0.0,-1.644575205,-42.545454545454554,-20.181818181818176,-48.36734693877551
31,1.0738649368286133,27.926130739506338,920.7855399172303,-11.206058955,0.0,-1.644575205,-43.0,-8.545454545454545,-46.63265306122449
32,1.1059892177581787,27.934959778096527,920.6869540851992,-10.441140255,-0.420705285,-1.22386992,-43.0,-8.545454545454545,-46.63265306122449
33,1.13798189163208,27.921716213226322,920.121029408857,-10.441140255,-0.420705285,-1.22386992,-43.90909090909091,-0.18181818181818182,-38.46938775510204
34,1.1726691722869873,27.9393742904067,919.9255868184723,-10.441140255,-0.420705285,-1.22386992,-43.90909090909091,-0.18181818181818182,-38.46938775510204
35,1.2122161388397215,27.930545261129733,919.9646752755982,-10.135172775000001,-0.573689025,-0.573689025,-44.0,2.636363636363636,-26.83673469387755
36,1.245331048965454,27.934959778096527,919.8083216299218,-10.135172775000001,-0.573689025,-0.573689025,-44.0,2.636363636363636,-26.83673469387755
37,1.2783081531524656,27.930545261129733,919.4769564729895,-9.56148375,0.30596748,-1.262115855,-43.90909090909091,0.18181818181818182,-15.918367346938775
38,1.3194811344146729,27.921716213226322,919.3001756475715,-9.56148375,0.30596748,-1.262115855,-43.90909090909091,0.18181818181818182,-15.918367346938775
39,1.3530261516571045,27.930545261129733,918.9092976241716,-9.56148375,0.30596748,-1.262115855,-43.72727272727273,-6.909090909090908,-7.755102040816326
40,1.3914549350738523,27.921716213226322,918.5983985161201,-8.987794725,0.91790244,-0.99439431,-43.090909090909086,-17.27272727272727,-4.591836734693878
41,1.4265401363372803,27.91730168228969,918.5779550115238,-8.987794725,0.91790244,-0.99439431,-43.090909090909086,-17.27272727272727,-4.591836734693878
42,1.461644172668457,27.91730168228969,918.3136676872756,-8.987794725,0.91790244,-0.99439431,-43.090909090909086,-27.545454545454547,-5.7142857142857135
43,1.4948110580444336,27.91730168228969,918.0307446095666,-8.4141057,0.038245935,-1.262115855,-42.72727272727273,-27.545454545454547,-5.7142857142857135
44,1.526595115661621,27.91730168228969,918.0307446095666,-8.4141057,0.038245935,-1.262115855,-42.72727272727273,-27.545454545454547,-13.06122448979592
45,1.5613932609558105,27.921716213226322,917.747828162738,-8.4141057,0.038245935,-1.262115855,-42.454545454545446,-35.45454545454545,-13.06122448979592
46,1.5946428775787354,27.921716213226322,917.4742292627681,-7.7256788699999985,-0.344213415,-1.37685366,-42.454545454545446,-35.45454545454545,-21.73469387755102
47,1.6268169879913332,27.91288714669645,917.317887702376,-7.7256788699999985,-0.344213415,-1.37685366,-42.27272727272727,-39.909090909090914,-21.73469387755102
48,1.6697580814361572,27.91730168228969,917.0442911405971,-7.7256788699999985,-0.344213415,-1.37685366,-41.72727272727273,-40.545454545454554,-32.244897959183675
49,1.7061450481414795,27.926130739506338,916.7613917789729,-7.610941065,0.650180895,-0.573689025,-41.72727272727273,-40.545454545454554,-32.244897959183675
50,1.7454771995544431,27.91730168228969,916.7613917789729,-7.610941065,0.650180895,-0.573689025,-41.63636363636364,-36.63636363636364,-40.510204081632644
51,1.7780752182006836,27.91730168228969,916.6832227673574,-7.610941065,0.650180895,-0.573689025,-41.63636363636364,-36.63636363636364,-40.510204081632644
52,1.81135892868042,27.91730168228969,916.3407639523057,-6.999006104999999,0.53544309,-1.6063292699999998,-41.72727272727273,-29.363636363636363,-47.24489795918368
53,1.8765439987182615,27.899643511977054,915.5609895372206,-6.999006104999999,0.53544309,-1.6063292699999998,-42.0,-20.72727272727273,-49.79591836734693
54,1.9126770496368408,27.899643511977054,915.5014096308505,-6.616546754999998,-0.07649187,0.344213415,-42.0,-20.72727272727273,-49.79591836734693
55,1.952230215072632,27.908472606446598,915.5702828195019,-6.616546754999998,-0.07649187,0.344213415,-42.454545454545446,-12.454545454545457,-47.959183673469376
56,1.9866280555725095,27.91730168228969,915.5888693399845,-6.616546754999998,-0.07649187,0.344213415,-42.454545454545446,-12.454545454545457,-47.959183673469376
57,2.021895885467529,27.91288714669645,915.3357860239472,-6.04285773,-1.262115855,-0.7649187,-42.72727272727273,-4.636363636363637,-44.489795918367356
58,2.054906129837036,27.91288714669645,915.10129031846,-6.04285773,-1.262115855,-0.7649187,-42.72727272727273,1.1818181818181817,-36.93877551020408
59,2.0975921154022217,27.908472606446598,914.8667957026856,-6.04285773,-0.07649187,-0.99439431,-43.0,1.1818181818181817,-36.93877551020408
60,2.134510040283203,27.904058061540127,914.5150558214632,-5.775136184999999,-0.07649187,-0.99439431,-43.36363636363637,3.1818181818181817,-28.469387755102044
61,2.1695151329040527,27.899643511977054,914.3885275051475,-5.775136184999999,-0.07649187,-0.99439431,-43.36363636363637,3.1818181818181817,-28.469387755102044
62,2.209238052368164,27.904058061540127,914.1931198136533,-5.12495529,-0.420705285,0.8414105699999999,-43.36363636363637,1.4545454545454544,-20.204081632653057
63,2.252864122390747,27.899643511977054,914.0665962594047,-5.12495529,-0.420705285,0.8414105699999999,-43.36363636363637,1.4545454545454544,-20.204081632653057
64,2.290951251983642,27.899643511977054,914.0275152707686,-4.81898781,-0.22947561,-1.75931301,-43.27272727272727,-2.636363636363636,-13.36734693877551
65,2.334918260574341,27.88639983534813,913.7148684496339,-4.81898781,-0.22947561,-1.75931301,-43.54545454545453,-6.909090909090908,-6.836734693877551
66,2.368978261947632,27.881985267158598,913.4505774770611,-4.81898781,-0.22947561,-1.75931301,-43.54545454545453,-6.909090909090908,-6.836734693877551
67,2.4039223194122314,27.88639983534813,913.1101198997197,-4.780741875,0.68842683,0.61193496,-42.81818181818181,-15.0,-3.7755102040816326
68,2.447118043899536,27.88639983534813,913.0134213190815,-4.780741875,0.68842683,0.61193496,-42.81818181818181,-15.0,-3.7755102040816326
69,2.483925104141236,27.890814398881048,912.7789493902175,-4.780741875,0.68842683,0.61193496,-42.63636363636364,-23.0,-4.6938775510204085
70,2.5238120555877686,27.877570694312453,912.7100591614046,-4.43652846,0.267721545,0.15298374,-42.63636363636364,-23.0,-4.6938775510204085
71,2.5587499141693115,27.890814398881048,912.6411675656104,-4.43652846,0.267721545,0.15298374,-42.36363636363637,-30.818181818181817,-7.448979591836735
72,2.5935192108154297,27.877570694312453,912.6113541059838,-4.43652846,0.267721545,0.15298374,-42.36363636363637,-30.818181818181817,-7.448979591836735
73,2.627803087234496,27.895228957757357,912.4066930277235,-4.20705285,0.191229675,-0.22947561,-42.18181818181817,-36.81818181818181,-13.469387755102039
74,2.6592252254486084,27.895228957757357,912.425220741378,-4.20705285,0.191229675,-0.22947561,-42.18181818181817,-36.81818181818181,-13.469387755102039
75,2.694040060043335,27.899643511977054,912.2781644017888,-4.20705285,0.191229675,-0.22947561,-41.454545454545446,-41.090909090909086,-20.306122448979586
76,2.7256960868835454,27.895228957757357,912.064243806163,-4.05406911,-0.7649187,-0.61193496,-41.454545454545446,-42.36363636363637,-26.12244897959184
77,2.7676851749420166,27.88639983534813,911.841072533197,-4.05406911,-0.7649187,-0.61193496,-41.18181818181817,-42.36363636363637,-26.12244897959184
78,2.8004710674285884,27.890814398881048,911.6436320569878,-4.05406911,-0.7649187,-0.61193496,-41.18181818181817,-41.545454545454554,-33.46938775510204
79,2.8341722488403325,27.881985267158598,911.5767845468846,-3.28915041,-0.650180895,0.30596748,-41.27272727272727,-41.545454545454554,-33.46938775510204
80,2.867594957351685,27.890814398881048,911.517139414252,-3.28915041,-0.650180895,0.30596748,-41.27272727272727,-41.545454545454554,-40.61224489795917
81,2.9004709720611572,27.881985267158598,911.2343366158248,-3.28915041,-0.650180895,0.30596748,-41.81818181818181,-38.36363636363636,-40.61224489795917
82,2.9415359497070312,27.881985267158598,917.0089179919972,-2.944936995,0.726672765,0.15298374,-42.27272727272727,-32.54545454545454,-45.81632653061224
83,2.9935653209686275,27.91730168228969,908.3958153802215,-2.944936995,0.726672765,0.15298374,-42.27272727272727,-32.54545454545454,-45.81632653061224
84,3.027796983718872,27.9614467821084,905.0971325846465,-19.50542685,19.50542685,12.200453264999997,-44.72727272727273,-23.272727272727277,-42.55102040816327
85,3.058935165405273,28.005591416265812,909.2057077615696,-19.50542685,19.50542685,12.200453264999997,-44.72727272727273,-23.272727272727277,-42.55102040816327
86,3.0939970016479488,28.036492383107543,909.3392706907342,-19.50542685,19.50542685,12.200453264999997,-44.545454545454554,-17.909090909090907,-43.46938775510204
87,3.125765085220337,28.049735584761947,909.1139625054202,-19.50542685,7.34321952,-17.822605709999998,-44.545454545454554,-17.909090909090907,-43.46938775510204
88,3.158581018447876,28.062978744506836,908.7898325558504,-19.50542685,7.34321952,-17.822605709999998,-34.63636363636364,-22.72727272727273,-63.46938775510203
89,3.1955881118774414,28.062978744506836,909.4543781015875,-19.50542685,7.34321952,-17.822605709999998,-34.63636363636364,-22.72727272727273,-63.46938775510203
90,3.22843599319458,28.062978744506836,909.8061998453406,-19.50542685,17.21067075,1.109132115,-41.27272727272727,-19.09090909090909,-50.918367346938766
91,3.2631962299346924,28.05856436258182,910.1004558001465,-19.50542685,17.21067075,1.109132115,-41.27272727272727,-19.09090909090909,-54.48979591836735
92,3.302696228027344,28.049735584761947,909.5830425665804,-19.50542685,17.21067075,1.109132115,-35.72727272727273,-35.81818181818181,-54.48979591836735
93,3.3434770107269283,28.03207797324285,909.8886711684878,-19.50542685,-13.041863835,-19.50542685,-39.909090909090914,-15.0,-53.97959183673469
94,3.3783230781555176,28.023249139543623,910.1047251650746,-19.50542685,-13.041863835,-19.50542685,-39.909090909090914,-15.0,-53.97959183673469
95,3.413853168487549,28.018834715709087,910.0265491076634,-19.50542685,-13.041863835,-19.50542685,-43.72727272727273,-20.454545454545457,-45.91836734693878
96,3.450745105743408,27.992348074913025,909.8424865219787,-19.50542685,-7.955154479999998,12.812388225,-43.72727272727273,-20.454545454545457,-45.91836734693878
97,3.489241123199463,27.992348074913025,909.9711184769279,-19.50542685,-7.955154479999998,12.812388225,-35.36363636363637,10.0,-47.04081632653061
98,3.524359226226806,27.987933618482202,909.9434029651662,-19.50542685,-7.955154479999998,-9.40850001,-35.36363636363637,10.0,-47.04081632653061
99,3.558744192123412,27.97910469165072,909.95264148363,-18.3580488,7.11374391,-9.40850001,-36.81818181818181,11.727272727272727,-40.71428571428572
100,3.5916941165924072,27.97910469165072,909.9917265517169,-18.3580488,7.11374391,-9.40850001,-36.81818181818181,11.727272727272727,-40.71428571428572
101,3.627096176147461,27.97910469165072,909.8950801305376,-12.735896355,0.726672765,0.15298374,-44.0,-3.363636363636364,-40.510204081632644
102,3.667102098464966,27.9614467821084,909.9547709177959,-12.735896355,0.726672765,0.15298374,-44.0,-3.363636363636364,-40.510204081632644
103,3.705457210540771,27.970275746192783,910.0236985172423,-12.735896355,0.726672765,0.15298374,-44.454545454545446,-2.636363636363636,-39.08163265306122
104,3.740999937057495,27.970275746192783,909.9156873225324,-2.14177236,2.06528049,-0.8414105699999999,-44.454545454545446,-2.636363636363636,-48.57142857142857
105,3.774242162704468,27.965861266478893,910.0123331255725,-2.14177236,2.06528049,-0.8414105699999999,-43.454545454545446,-15.909090909090908,-48.57142857142857
106,3.807269096374512,27.970275746192783,909.9846152300764,-2.14177236,2.06528049,-0.8414105699999999,-41.63636363636364,-36.81818181818181,-40.61224489795917
107,3.8466060161590576,27.9614467821084,909.8972101547569,-1.338607725,-0.573689025,-1.262115855,-41.63636363636364,-36.81818181818181,-40.61224489795917
108,3.882199048995972,27.965861266478893,909.9846152300764,-1.338607725,-0.573689025,-1.262115855,-41.27272727272727,-41.63636363636364,-19.489795918367346
109,3.9147000312805176,27.9614467821084,909.82828238196,-1.338607725,-0.573689025,-1.262115855,-41.27272727272727,-41.63636363636364,-19.489795918367346
110,3.956043958663941,27.9614467821084,909.9156873225324,-0.68842683,-0.22947561,0.0,-41.81818181818181,-30.54545454545454,-5.918367346938777
111,3.9910640716552734,27.957032293081284,909.9249258846157,-0.68842683,-0.22947561,0.0,-41.81818181818181,-30.54545454545454,-5.918367346938777
112,4.023206233978272,27.970275746192783,909.9156873225324,-0.68842683,0.420705285,-0.30596748,-43.36363636363637,-16.09090909090909,-5.102040816326531
113,4.066307067871094,27.9614467821084,909.9156873225324,-0.267721545,0.420705285,-0.30596748,-43.36363636363637,-16.09090909090909,-5.102040816326531
114,4.099178075790404,27.970275746192783,909.9753759025009,-0.267721545,0.420705285,-0.30596748,-44.27272727272727,-4.363636363636364,-11.428571428571427
115,4.137271165847777,27.9614467821084,910.0236985172423,-0.191229675,0.7649187,-0.573689025,-44.27272727272727,-4.363636363636364,-22.95918367346939
116,4.175316095352173,27.957032293081284,909.9362930136015,-0.191229675,0.7649187,-0.573689025,-45.0,-0.909090909090909,-22.95918367346939
117,4.214477062225342,27.9614467821084,910.0443016919311,-0.191229675,0.7649187,-0.573689025,-45.81818181818183,-2.4545454545454546,-29.285714285714292
118,4.246737241744995,27.965861266478893,910.0720218839244,-0.267721545,0.344213415,-0.879656505,-45.81818181818183,-2.4545454545454546,-29.285714285714292
119,4.280891180038452,27.965861266478893,910.150189344974,-0.267721545,0.344213415,-0.879656505,-46.0,-6.181818181818182,-34.79591836734694
120,4.316957950592041,27.9614467821084,910.0627818344659,-0.267721545,0.344213415,-0.879656505,-46.0,-6.181818181818182,-34.79591836734694
121,4.353935241699219,27.9614467821084,910.1409485590943,0.15298374,-0.114737805,-0.497197155,-45.545454545454554,-10.636363636363635,-39.08163265306122
122,4.392606019973754,27.965861266478893,910.1409485590943,0.15298374,-0.114737805,-0.497197155,-45.545454545454554,-10.636363636363635,-39.08163265306122
123,4.427724123001099,27.957032293081284,910.1707907978669,0.15298374,-0.114737805,-0.497197155,-44.63636363636363,-14.909090909090908,-44.18367346938776
124,4.463245153427124,27.965861266478893,910.0926247495398,0.45895122,-0.650180895,0.497197155,-44.63636363636363,-14.909090909090908,-44.18367346938776
125,4.497945070266724,27.965861266478893,910.2880400958419,0.45895122,-0.650180895,0.497197155,-42.545454545454554,-20.63636363636364,-49.69387755102041
126,4.531512022018433,27.965861266478893,910.258198871512,0.45895122,-0.650180895,0.497197155,-42.545454545454554,-20.63636363636364,-49.69387755102041
127,4.565819263458252,27.9614467821084,910.3846924496953,0.22947561,0.30596748,1.4150995949999998,-38.72727272727273,-31.0,-53.97959183673469
128,4.598555088043213,27.9614467821084,910.1800319665018,0.22947561,0.30596748,1.4150995949999998,-38.72727272727273,-31.0,-53.97959183673469
129,4.635561943054198,27.957032293081284,910.2489569664504,0.22947561,0.30596748,1.4150995949999998,-33.18181818181818,-43.0,-53.3673469387755
130,4.673462152481079,27.95261779939756,910.239715046844,0.114737805,3.556871955,1.644575205,-33.18181818181818,-43.0,-53.3673469387755
131,4.705848217010497,27.95261779939756,910.2674407620275,0.114737805,3.556871955,1.644575205,-24.090909090909086,-56.45454545454546,-50.61224489795918
132,4.740613222122192,27.957032293081284,910.2489569664504,0.114737805,3.556871955,1.644575205,-24.090909090909086,-56.45454545454546,-50.61224489795918
133,4.774097204208374,27.95261779939756,910.1224669437088,-0.114737805,3.939331305,1.262115855,-10.0,-69.36363636363636,-35.61224489795918
134,4.8114330768585205,27.957032293081284,910.1224669437088,-0.114737805,3.939331305,1.262115855,10.18181818181818,-69.81818181818184,-12.142857142857142
135,4.853140115737915,27.943788798060268,910.3292342605488,-2.868445125,2.485985775,-0.267721545,10.18181818181818,-69.81818181818184,-12.142857142857142
136,4.8905909061431885,27.943788798060268,910.3683160072787,-2.868445125,2.485985775,-0.267721545,26.63636363636364,-52.0,9.795918367346937
137,4.934087991714477,27.934959778096527,910.3889101317919,-2.868445125,2.485985775,-0.267721545,26.63636363636364,-52.0,9.795918367346937
138,4.971776008605957,27.934959778096527,910.5452345939647,-4.857233744999999,-2.75370732,-2.60072358,36.18181818181817,-33.27272727272727,14.489795918367344
139,5.004744052886962,27.926130739506338,910.5637251920425,-4.857233744999999,-2.75370732,-2.60072358,36.18181818181817,-33.27272727272727,14.489795918367344
140,5.038982152938843,27.934959778096527,910.535989273106,-4.857233744999999,-2.75370732,-2.60072358,39.0,-44.72727272727273,7.244897959183674
141,5.0728042125701895,27.934959778096527,910.6233970055204,-15.413111805,7.228481715,-8.834810985,39.0,-44.72727272727273,7.244897959183674
142,5.111621141433716,27.926130739506338,910.6233970055204,-15.413111805,7.228481715,-8.834810985,42.63636363636364,-54.09090909090909,-6.224489795918366
143,5.143928050994874,27.934959778096527,910.7200530812881,-15.413111805,7.228481715,-8.834810985,42.63636363636364,-54.09090909090909,-6.224489795918366
144,5.184344053268433,27.926130739506338,910.740640848478,-19.50542685,0.726672765,-0.99439431,55.272727272727266,-28.090909090909086,-2.6530612244897958
145,5.221513986587524,27.934959778096527,910.7797221896368,-19.50542685,0.726672765,-0.99439431,55.272727272727266,-8.545454545454545,-9.795918367346937
146,5.254234075546265,27.934959778096527,910.818803560885,-19.50542685,1.262115855,-8.528843504999998,57.18181818181817,-8.545454545454545,-9.795918367346937
147,5.294824123382568,27.934959778096527,910.9154636198105,-19.50542685,1.262115855,-8.528843504999998,54.545454545454525,6.363636363636363,-44.387755102040806
148,5.325407028198241,27.94820330105722,910.8578849622239,-19.50542685,1.262115855,-8.528843504999998,54.545454545454525,6.363636363636363,-44.387755102040806
149,5.358046054840089,27.95261779939756,910.9545458177934,-16.560489855,-2.14177236,1.75931301,58.545454545454554,-13.272727272727273,-52.24489795918368
150,5.39497709274292,27.934959778096527,910.876381451923,-16.560489855,-2.14177236,1.75931301,58.545454545454554,-13.272727272727273,-52.24489795918368
151,5.428832054138184,27.934959778096527,910.9751293468013,-16.560489855,-2.14177236,1.75931301,63.18181818181819,-23.72727272727273,-39.489795918367356
152,5.463196277618407,27.926130739506338,910.9936280458727,-4.857233744999999,0.22947561,-3.28915041,63.18181818181819,-23.72727272727273,-39.489795918367356
153,5.496361970901488,27.934959778096527,910.9957113747471,-4.857233744999999,0.22947561,-3.28915041,63.27272727272727,-22.818181818181817,-26.12244897959184
154,5.5363290309906015,27.934959778096527,911.0923740022547,-4.857233744999999,0.22947561,-3.28915041,63.27272727272727,-22.818181818181817,-26.12244897959184
155,5.5678551197052,27.926130739506338,910.9566305894928,-2.67721545,-0.191229675,-0.8414105699999999,62.81818181818183,-16.90909090909091,-23.571428571428566
156,5.604574918746947,27.926130739506338,911.0532924203368,-2.67721545,-0.191229675,-0.8414105699999999,62.81818181818183,-16.90909090909091,-23.571428571428566
157,5.635874032974243,27.930545261129733,911.0142108685197,-2.67721545,-0.191229675,-0.8414105699999999,62.18181818181817,-11.818181818181817,-23.979591836734688
158,5.665662050247192,27.934959778096527,910.9751293468013,-4.092315045,-1.37685366,-1.262115855,62.18181818181817,-11.818181818181817,-23.979591836734688
159,5.701620101928711,27.930545261129733,911.0923740022547,-4.092315045,-1.37685366,-1.262115855,62.0,-9.909090909090908,-27.244897959183675
160,5.744953155517577,27.926130739506338,911.1314556142751,-4.092315045,-1.37685366,-1.262115855,62.0,-9.909090909090908,-27.244897959183675
161,5.778241157531738,27.926130739506338,911.0831235261832,-8.069892285,-0.30596748,-0.114737805,62.545454545454554,-11.545454545454545,-28.77551020408163
162,5.812314033508301,27.926130739506338,911.1705372563993,-8.069892285,-0.30596748,-0.114737805,62.545454545454554,-11.545454545454545,-28.77551020408163
163,5.845220088958741,27.921716213226322,911.1427835750974,-8.069892285,-0.30596748,-0.114737805,63.09090909090908,-14.81818181818182,-28.367346938775512
164,5.878390073776245,27.921716213226322,911.1520348167603,-9.714467489999999,0.8031646349999999,0.45895122,63.09090909090908,-14.81818181818182,-28.367346938775512
165,5.9124200344085684,27.921716213226322,911.2692777143639,-9.714467489999999,0.8031646349999999,0.45895122,63.27272727272727,-19.272727272727277,-24.183673469387756
166,5.944384098052978,27.91730168228969,911.2301967183887,-9.714467489999999,0.8031646349999999,0.45895122,63.27272727272727,-19.272727272727277,-24.183673469387756
167,5.978126049041748,27.921716213226322,911.2600253679908,-12.69765042,0.30596748,-3.51862602,61.09090909090908,-21.909090909090914,-15.30612244897959
168,6.009501218795776,27.926130739506338,911.3083587404483,-12.69765042,0.30596748,-3.51862602,61.09090909090908,-21.909090909090914,-15.30612244897959
169,6.045480251312256,27.91730168228969,911.2600253679908,-12.69765042,0.30596748,-3.51862602,59.27272727272728,-22.090909090909086,-10.714285714285712
170,6.081729173660277,27.91730168228969,911.2991060258375,-13.347831314999997,-0.191229675,-5.27793903,59.27272727272728,-22.090909090909086,-10.714285714285712
171,6.11784291267395,27.91730168228969,911.347439796644,-13.347831314999997,-0.191229675,-5.27793903,60.0,-19.272727272727277,-12.551020408163268
172,6.149033069610596,27.921716213226322,911.2991060258375,-13.347831314999997,-0.191229675,-5.27793903,60.0,-19.272727272727277,-12.551020408163268
173,6.187517166137694,27.91730168228969,911.3772674318659,-8.299367894999998,-0.879656505,-1.30036179,62.18181818181817,-18.454545454545453,-18.97959183673469
174,6.225145101547241,27.930545261129733,911.386520882953,-8.299367894999998,-0.879656505,-1.30036179,63.27272727272727,-20.545454545454543,-26.12244897959184
175,6.260601043701172,27.921716213226322,911.3289336163808,-8.299367894999998,-0.879656505,-1.30036179,63.27272727272727,-20.545454545454543,-26.12244897959184
176,6.298129081726073,27.91288714669645,911.4852551963907,-6.1193496,-1.185623985,0.038245935,63.63636363636363,-23.81818181818182,-31.632653061224488
177,6.333446264266968,27.91730168228969,911.4852551963907,-6.1193496,-1.185623985,0.038245935,63.63636363636363,-23.81818181818182,-31.632653061224488
178,6.376133203506469,27.91288714669645,911.5634161671001,-6.004611795000001,-0.22947561,-0.61193496,62.72727272727273,-26.36363636363636,-37.55102040816327
179,6.409706115722656,27.91288714669645,911.6415772582965,-6.004611795000001,-0.22947561,-0.61193496,62.72727272727273,-26.36363636363636,-37.55102040816327
180,6.443701982498169,27.91730168228969,911.6117523727385,-6.004611795000001,-0.22947561,-0.61193496,61.81818181818181,-23.090909090909086,-45.20408163265306
181,6.4813480377197275,27.91288714669645,911.6323212003773,-10.594123995,2.333002035,-0.07649187,61.81818181818181,-23.090909090909086,-45.20408163265306
182,6.518315076828002,27.91730168228969,911.7680762691087,-10.594123995,2.333002035,-0.07649187,61.0,-14.545454545454543,-46.63265306122449
183,6.559548139572144,27.91288714669645,911.6714014229177,-10.594123995,2.333002035,-0.07649187,61.0,-14.545454545454543,-42.6530612244898
184,6.592557191848754,27.91288714669645,911.7104816755843,-14.342225625,-0.114737805,-2.868445125,60.18181818181817,-5.454545454545454,-42.6530612244898
185,6.625298976898192,27.91730168228969,911.7978998022023,-14.342225625,-0.114737805,-2.868445125,60.18181818181817,3.5454545454545454,-38.16326530612245
186,6.662050008773804,27.91288714669645,911.8071573185229,-14.342225625,-0.114737805,-2.868445125,57.09090909090909,3.5454545454545454,-38.16326530612245
187,6.697098970413209,27.91730168228969,911.8369805135037,-12.16220733,-0.91790244,-4.245298785,54.272727272727266,10.0,-32.755102040816325
188,6.734229087829591,27.908472606446598,911.7886422713027,-12.16220733,-0.91790244,-4.245298785,54.272727272727266,10.0,-32.755102040816325
189,6.775403022766112,27.91288714669645,911.8369805135037,-12.16220733,-0.91790244,-4.245298785,50.90909090909091,12.363636363636365,-22.142857142857146
190,6.809197187423705,27.91730168228969,911.8966247406461,-8.873056919999998,0.07649187,-1.07088618,50.90909090909091,12.363636363636365,-22.142857142857146
191,6.842425107955932,27.91730168228969,911.9058833908674,-8.873056919999998,0.07649187,-1.07088618,47.18181818181817,8.636363636363635,-6.326530612244897
192,6.879705190658569,27.908472606446598,911.9151420265075,-8.873056919999998,0.07649187,-3.21265854,43.72727272727273,-9.090909090909092,9.183673469387756
193,6.936209201812744,27.908472606446598,911.9768258609921,-7.955154479999998,0.45895122,-3.21265854,43.0,-33.0,9.489795918367347
194,7.003662109375001,27.877570694312453,911.9470066535567,-6.425317079999999,2.06528049,-2.2947561,43.0,-33.0,9.489795918367347
195,7.041013956069945,27.899643511977054,912.0251647251539,-6.425317079999999,2.06528049,-2.2947561,43.72727272727273,-46.090909090909086,1.63265306122449
196,7.077753067016602,27.895228957757357,912.0344248921219,-6.425317079999999,2.06528049,-2.2947561,43.72727272727273,-46.090909090909086,1.63265306122449
197,7.118209123611449,27.895228957757357,912.0436850445096,-9.63797562,1.68282114,-3.021428865,46.36363636363636,-47.09090909090909,-2.244897959183673
198,7.156028270721436,27.88639983534813,912.1125838207912,-9.63797562,1.68282114,-3.021428865,46.36363636363636,-47.09090909090909,-2.244897959183673
199,7.191843032836914,27.895228957757357,912.0735043413852,-9.63797562,-0.61193496,-2.67721545,50.727272727272734,-45.63636363636363,-6.73469387755102
200,7.191843032836914,27.859912356361743,912.1855401263641,-10.09692684,0.9561483750000002,-2.14177236,55.63636363636364,-49.18181818181817,-36.326530612244895
201,7.352795124053955,27.864326947834343,912.2040650980961,-10.09692684,0.9561483750000002,-2.14177236,55.63636363636364,-49.18181818181817,-36.326530612244895
202,7.396637201309203,27.877570694312453,912.2914824334154,-10.135172775000001,0.726672765,-0.267721545,57.999999999999986,-40.909090909090914,-47.959183673469376
203,7.433764219284058,27.877570694312453,912.3007456193632,-10.135172775000001,0.726672765,-0.267721545,57.999999999999986,-40.909090909090914,-50.510204081632644
204,7.465948104858398,27.881985267158598,912.34908700814,-10.135172775000001,0.726672765,-0.267721545,60.27272727272728,-30.363636363636363,-50.510204081632644
205,7.50076413154602,27.881985267158598,912.4066930277235,-12.850634159999997,1.5298374,-1.4150995949999998,60.27272727272728,-22.63636363636364,-45.408163265306115
206,7.535015106201171,27.88639983534813,912.4365077949952,-12.850634159999997,1.5298374,-1.4150995949999998,62.36363636363637,-22.63636363636364,-45.408163265306115
207,7.569841146469118,27.881985267158598,912.4457720419699,-12.850634159999997,1.5298374,-1.4150995949999998,63.63636363636363,-18.0,-37.3469387755102
208,7.608392000198365,27.881985267158598,912.5054001793504,-11.703256109999996,0.650180895,-2.44773984,63.63636363636363,-18.0,-37.3469387755102
209,7.639615058898925,27.895228957757357,912.4848510863748,-11.703256109999996,0.650180895,-2.44773984,63.545454545454554,-14.72727272727273,-31.42857142857143
210,7.672346115112304,27.881985267158598,912.4663218413107,-11.703256109999996,0.650180895,-2.44773984,63.545454545454554,-14.72727272727273,-31.42857142857143
211,7.704522132873534,27.881985267158598,912.581539925401,-9.676221555,0.07649187,-1.950542685,62.72727272727273,-12.272727272727273,-27.244897959183675
212,7.749134063720702,27.881985267158598,912.5537439139049,-9.676221555,0.07649187,-1.950542685,62.72727272727273,-12.272727272727273,-27.244897959183675
213,7.7914202213287345,27.877570694312453,912.5444785475504,-9.676221555,0.07649187,-1.950542685,62.90909090909092,-11.363636363636365,-25.40816326530612
214,7.830271959304808,27.881985267158598,912.6226353744393,-8.452351634999998,0.726672765,-1.032640245,62.90909090909092,-8.636363636363635,-22.755102040816325
215,7.870120286941528,27.881985267158598,912.5444785475504,-8.452351634999998,0.726672765,-1.032640245,61.72727272727273,-8.636363636363635,-22.755102040816325
216,7.906583070755005,27.881985267158598,912.7007923219907,-7.7256788699999985,0.114737805,-1.22386992,60.454545454545446,-6.363636363636363,-19.28571428571429
217,7.946444988250732,27.877570694312453,912.7285927964363,-7.7256788699999985,0.114737805,-1.22386992,60.454545454545446,-6.363636363636363,-19.28571428571429
218,7.98473024368286,27.881985267158598,912.6133692569615,-7.7256788699999985,0.114737805,-1.22386992,57.272727272727266,-5.454545454545454,-16.020408163265305
219,8.021874189376831,27.881985267158598,912.7193259862205,-9.293762205,0.8031646349999999,-2.180018295,57.272727272727266,-5.454545454545454,-16.020408163265305
220,8.056562185287476,27.877570694312453,912.7193259862205,-9.293762205,0.8031646349999999,-2.180018295,56.727272727272734,-6.727272727272728,-9.081632653061224
221,8.087315082550049,27.895228957757357,912.7285927964363,-9.293762205,0.8031646349999999,-2.180018295,56.727272727272734,-6.727272727272728,-9.081632653061224
222,8.12343716621399,27.881985267158598,912.8756431894913,-9.56148375,1.262115855,-2.944936995,55.272727272727266,-3.5454545454545454,-9.081632653061224
223,8.1555540561676,27.88639983534813,912.7974845275097,-9.56148375,1.262115855,-2.944936995,55.272727272727266,-3.5454545454545454,-9.081632653061224
224,8.189337015151976,27.881985267158598,912.8756431894913,-9.56148375,1.262115855,-2.944936995,54.90909090909091,1.9090909090909087,-13.163265306122447
225,8.228646278381348,27.881985267158598,912.8663748916136,-8.10813822,-0.114737805,-1.37685366,54.90909090909091,1.9090909090909087,-13.163265306122447
226,8.265130996704102,27.881985267158598,912.8776478135482,-8.10813822,-0.114737805,-1.37685366,53.545454545454525,5.090909090909091,-15.918367346938775
227,8.305742025375366,27.881985267158598,912.953801972178,-8.10813822,-0.114737805,-1.22386992,53.545454545454525,4.454545454545455,-13.571428571428573
228,8.34517025947571,27.899643511977054,913.0319608755834,-8.834810985,0.15298374,-1.22386992,53.18181818181818,4.454545454545455,-13.571428571428573
229,8.382368087768553,27.88639983534813,913.0319608755834,-8.834810985,0.15298374,-1.22386992,53.0,0.7272727272727273,-7.551020408163265
230,8.42037296295166,27.881985267158598,913.05250007952,-10.78535367,1.262115855,-2.75370732,53.0,0.7272727272727273,-7.551020408163265
231,8.456037044525146,27.881985267158598,913.1286608708499,-10.78535367,1.262115855,-2.75370732,52.09090909090909,0.2727272727272728,-7.040816326530612
232,8.501624107360838,27.873156116809692,913.1697365419424,-10.78535367,1.262115855,-2.75370732,52.09090909090909,0.2727272727272728,-7.040816326530612
233,8.538701057434082,27.877570694312453,913.1604652686951,-9.599729685,0.30596748,-1.5298374,51.09090909090909,6.181818181818182,-9.081632653061224
234,8.573398113250732,27.877570694312453,913.2088154231246,-9.599729685,0.30596748,-1.5298374,51.09090909090909,6.181818181818182,-11.836734693877553
235,8.606446027755737,27.877570694312453,913.1697365419424,-9.599729685,0.30596748,-1.5298374,49.18181818181817,10.545454545454545,-11.836734693877553
236,8.64018988609314,27.890814398881048,913.2068214888025,-11.588518305000003,-1.37685366,-1.644575205,49.18181818181817,10.545454545454545,-7.959183673469387
237,8.676246166229248,27.881985267158598,913.296245639513,-11.588518305000003,-1.37685366,-1.644575205,47.81818181818183,9.090909090909092,-7.959183673469387
238,8.712332010269165,27.877570694312453,913.3260522478192,-11.588518305000003,0.650180895,-1.950542685,49.09090909090909,-1.818181818181818,-0.10204081632653059
239,8.752588987350464,27.881985267158598,913.296245639513,-11.129567084999998,0.650180895,-1.950542685,49.09090909090909,-1.818181818181818,-0.10204081632653059
240,8.785242080688477,27.88639983534813,913.3353249795431,-11.129567084999998,0.650180895,-1.950542685,50.09090909090909,-13.090909090909092,3.26530612244898
241,8.824128150939941,27.881985267158598,913.3651312497717,-9.33200814,-0.038245935,-1.644575205,50.09090909090909,-13.090909090909092,3.26530612244898
242,8.857134103775026,27.877570694312453,913.3260522478192,-9.33200814,-0.038245935,-1.644575205,49.63636363636363,-22.454545454545453,5.204081632653061
243,8.893072128295898,27.881985267158598,913.4134837501923,-9.33200814,-0.038245935,-1.644575205,49.63636363636363,-22.454545454545453,5.204081632653061
244,8.934087991714478,27.873156116809692,913.4823684368168,-7.993400415,0.61193496,-4.015823175,50.454545454545446,-33.90909090909092,1.9387755102040811
245,8.971100091934206,27.877570694312453,913.4042102819215,-7.993400415,0.61193496,-4.015823175,50.454545454545446,-33.90909090909092,1.9387755102040811
246,9.004635095596313,27.881985267158598,913.4916426416369,-7.993400415,0.61193496,-4.015823175,53.36363636363637,-41.81818181818181,-7.653061224489795
247,9.037976026535034,27.881985267158598,913.5976263902448,-8.64358131,0.99439431,-2.98318293,53.36363636363637,-41.81818181818181,-7.653061224489795
248,9.073534965515137,27.877570694312453,913.5009168318339,-8.64358131,0.99439431,-2.98318293,58.09090909090908,-41.454545454545446,-18.87755102040816
249,9.105671882629395,27.877570694312453,913.4916426416369,-8.64358131,0.99439431,-2.98318293,58.09090909090908,-41.454545454545446,-18.87755102040816
250,9.143603086471556,27.881985267158598,913.5698016538893,-9.33200814,-0.114737805,-1.950542685,61.90909090909092,-36.0,-29.183673469387756
251,9.182715177536009,27.877570694312453,913.620133709319,-9.33200814,-0.114737805,-1.950542685,63.63636363636363,-27.72727272727273,-36.53061224489796
252,9.221580982208254,27.873156116809692,913.6294094164921,-9.33200814,-0.114737805,-3.21265854,63.63636363636363,-27.72727272727273,-36.53061224489796
253,9.260402202606201,27.873156116809692,913.6890142952016,-11.4737805,0.191229675,-3.21265854,63.63636363636363,-19.454545454545453,-38.775510204081634
254,9.299300193786623,27.873156116809692,913.7671707237197,-11.4737805,0.191229675,-3.21265854,63.63636363636363,-19.454545454545453,-38.775510204081634
255,9.34322214126587,27.859912356361743,913.728092494355,-11.16781302,1.262115855,-1.950542685,62.63636363636363,-11.272727272727272,-33.06122448979592
256,9.38070011138916,27.864326947834343,913.8155265464987,-11.16781302,1.262115855,-1.950542685,60.545454545454554,-6.636363636363637,-23.87755102040816
257,9.428430080413818,27.85549776023254,913.8360493269776,-11.16781302,1.262115855,-1.950542685,60.545454545454554,-6.636363636363637,-23.87755102040816
258,9.463168144226076,27.864326947834343,913.9142052606463,-10.86184554,0.650180895,-2.791953255,57.81818181818181,-5.909090909090908,-11.93877551020408
259,9.509569168090819,27.851083159446723,913.895647851396,-10.86184554,0.650180895,-2.791953255,55.272727272727266,-7.363636363636365,-6.122448979591836
260,9.55096125602722,27.85549776023254,914.0519571350774,-9.752713425,-0.07649187,-2.791953255,55.272727272727266,-7.363636363636365,-6.122448979591836
261,9.586855173110962,27.85549776023254,913.983081881308,-9.752713425,-0.07649187,-2.791953255,54.18181818181818,-10.18181818181818,-3.469387755102041
262,9.62619590759277,27.864326947834343,913.9254460321312,-9.752713425,-0.07649187,-2.791953255,54.18181818181818,-10.18181818181818,-3.469387755102041
263,9.663316011428831,27.84666855400428,914.0519571350774,-7.7256788699999985,-0.038245935,-0.9561483750000002,54.09090909090909,-17.909090909090907,-1.8367346938775513
264,9.695672035217283,27.864326947834343,914.0705174906296,-7.7256788699999985,-0.038245935,-0.9561483750000002,54.09090909090909,-17.909090909090907,-1.8367346938775513
265,9.730886220932007,27.85549776023254,914.0519571350774,-7.7256788699999985,0.420705285,-1.30036179,54.272727272727266,-29.909090909090907,-2.9591836734693886
266,9.76837396621704,27.859912356361743,914.0426769353548,-9.10253253,0.420705285,-1.30036179,54.272727272727266,-29.909090909090907,-2.9591836734693886
267,9.804591178894043,27.864326947834343,914.139392879934,-9.10253253,0.420705285,-1.30036179,53.63636363636364,-41.27272727272727,-9.081632653061224
268,9.83795404434204,27.85549776023254,914.139392879934,-9.79095936,1.37685366,-1.032640245,53.63636363636364,-41.27272727272727,-9.081632653061224
269,9.876463174819945,27.85549776023254,914.226830204229,-9.79095936,1.37685366,-1.032640245,54.09090909090909,-46.36363636363636,-15.408163265306122
270,9.919537305831907,27.859912356361743,914.2082669023606,-9.79095936,1.37685366,-1.032640245,55.18181818181817,-46.727272727272734,-18.6734693877551
271,9.95873999595642,27.864326947834343,914.2864219673855,-8.528843504999998,0.191229675,-1.4150995949999998,55.18181818181817,-46.727272727272734,-18.6734693877551
272,9.993098020553587,27.864326947834343,914.3049867424177,-8.528843504999998,0.191229675,-1.4150995949999998,55.63636363636364,-46.90909090909091,-21.836734693877553
273,10.030241966247559,27.85549776023254,914.3738602847708,-8.528843504999998,0.191229675,-1.4150995949999998,55.63636363636364,-46.90909090909091,-21.836734693877553
274,10.06763219833374,27.85549776023254,914.3254995452493,-10.441140255,0.191229675,-2.06528049,55.90909090909091,-47.81818181818183,-27.448979591836732
275,10.10520601272583,27.859912356361743,914.4036547916884,-10.441140255,0.191229675,-2.06528049,55.90909090909091,-47.81818181818183,-27.448979591836732
276,10.14525318145752,27.85549776023254,914.4036547916884,-10.670615864999998,0.38245935,-0.267721545,56.81818181818183,-46.90909090909091,-34.591836734693885
277,10.18363904953003,27.85549776023254,914.4520163282745,-10.670615864999998,0.38245935,-0.267721545,56.81818181818183,-44.27272727272727,-38.6734693877551
278,10.220461130142212,27.85549776023254,914.4520163282745,-10.670615864999998,0.38245935,-0.267721545,57.545454545454554,-44.27272727272727,-38.6734693877551
279,10.253494024276733,27.859912356361743,914.52088788815,-10.63236993,0.344213415,-0.45895122,57.545454545454554,-41.72727272727273,-39.591836734693885
280,10.287747144699097,27.84666855400428,914.5413956577393,-10.63236993,0.344213415,-0.45895122,59.0,-41.72727272727273,-39.591836734693885
281,10.326234102249144,27.842253943905234,914.5023186350248,-10.63236993,0.344213415,-0.45895122,60.0,-39.27272727272727,-38.36734693877551
282,10.359472274780272,27.84666855400428,914.6195497939059,-11.703256109999996,0.99439431,-2.868445125,60.0,-39.27272727272727,-38.36734693877551
283,10.39615797996521,27.84666855400428,914.6679130144383,-11.703256109999996,0.99439431,-2.868445125,61.09090909090908,-36.0,-37.142857142857146
284,10.427950143814089,27.84666855400428,914.6977040510681,-11.703256109999996,0.99439431,-2.868445125,61.09090909090908,-36.0,-37.142857142857146
285,10.469933032989502,27.837839329149574,914.5619019258083,-9.867451229999999,-0.038245935,-1.568083335,61.90909090909092,-33.18181818181818,-37.142857142857146
286,10.50280022621155,27.842253943905234,914.6102640404828,-9.867451229999999,-0.038245935,-1.568083335,61.90909090909092,-33.18181818181818,-37.142857142857146
287,10.542075157165527,27.837839329149574,914.7274943667015,-9.867451229999999,-0.038245935,-1.568083335,62.72727272727273,-30.272727272727277,-38.97959183673469
288,10.579445123672484,27.842253943905234,914.6493407856384,-9.255516270000001,-0.22947561,-0.497197155,62.72727272727273,-30.272727272727277,-38.97959183673469
289,10.615783214569092,27.842253943905234,914.736781225026,-9.255516270000001,-0.22947561,-0.497197155,62.545454545454554,-27.909090909090914,-38.16326530612245
290,10.650015115737917,27.837839329149574,914.7758584292378,-9.523237815,0.726672765,-1.14737805,62.545454545454554,-27.909090909090914,-38.16326530612245
291,10.690258264541626,27.84666855400428,914.8930902234114,-9.523237815,0.726672765,-1.14737805,62.545454545454554,-27.909090909090914,-38.16326530612245
292,10.725295066833496,27.837839329149574,914.8354369873188,-9.523237815,0.726672765,-1.14737805,63.09090909090908,-22.818181818181817,-35.714285714285715
293,10.767401933670046,27.837839329149574,914.8930902234114,-10.211664645,0.68842683,-2.2947561,63.09090909090908,-22.818181818181817,-35.714285714285715
294,10.797805070877075,27.837839329149574,914.8838018918798,-10.211664645,0.68842683,-2.2947561,63.36363636363637,-18.818181818181817,-37.04081632653061
295,10.834802865982056,27.837839329149574,915.0103222899272,-10.211664645,0.68842683,-2.2947561,63.36363636363637,-18.818181818181817,-37.04081632653061
296,10.868048191070557,27.837839329149574,915.0493997059604,-9.1790244,-0.726672765,-1.75931301,62.81818181818183,-14.81818181818182,-40.61224489795917
297,10.901968240737917,27.837839329149574,915.0103222899272,-9.1790244,-0.726672765,-1.75931301,62.81818181818183,-14.81818181818182,-40.61224489795917
298,10.939682006835936,27.82901008566841,915.0493997059604,-9.1790244,-0.726672765,-1.75931301,61.36363636363637,-11.454545454545457,-42.55102040816327
299,10.976402282714846,27.837839329149574,915.0884771522605,-9.79095936,-0.38245935,-0.30596748,61.36363636363637,-11.454545454545457,-42.55102040816327
300,11.009862184524536,27.85549776023254,915.1368451555246,-9.79095936,-0.38245935,-0.30596748,60.90909090909092,-6.727272727272728,-43.265306122448976
301,11.044464111328125,27.837839329149574,915.1275546288288,-9.79095936,-0.38245935,-0.30596748,60.90909090909092,-6.727272727272728,-43.265306122448976
302,11.078169107437132,27.8334247097373,915.1275546288288,-11.206058955,0.61193496,-1.4150995949999998,60.09090909090908,-2.9090909090909087,-36.0204081632653
303,11.110926151275633,27.842253943905234,915.2057096727772,-11.206058955,0.61193496,-1.4150995949999998,60.09090909090908,-2.9090909090909087,-36.0204081632653
304,11.1473650932312,27.84666855400428,915.2838648378192,-11.206058955,0.61193496,-1.4150995949999998,59.63636363636363,-1.090909090909091,-29.183673469387756
305,11.1821391582489,27.84666855400428,915.2745728232366,-10.78535367,1.032640245,-2.485985775,59.63636363636363,-1.090909090909091,-29.183673469387756
306,11.218261003494263,27.842253943905234,915.2652807939891,-10.78535367,1.032640245,-2.485985775,57.63636363636364,2.4545454545454546,-23.77551020408163
307,11.250951290130615,27.84666855400428,915.2150009360826,-10.78535367,1.032640245,-2.485985775,57.63636363636364,2.4545454545454546,-23.77551020408163
308,11.283880233764648,27.84666855400428,915.2150009360826,-10.135172775000001,-0.38245935,-2.60072358,55.36363636363636,6.363636363636363,-21.020408163265305
309,11.322992086410522,27.837839329149574,915.3527273727688,-10.135172775000001,-0.38245935,-2.60072358,55.36363636363636,6.363636363636363,-16.632653061224488
310,11.36061120033264,27.84666855400428,915.3620201239672,-10.135172775000001,-0.38245935,-1.874050815,54.454545454545446,6.636363636363637,-16.632653061224488
311,11.39754319190979,27.837839329149574,915.4010978124601,-10.823599605,-0.30596748,-1.874050815,54.81818181818183,0.909090909090909,-10.20408163265306
312,11.431498050689695,27.842253943905234,915.3620201239672,-10.823599605,-0.30596748,-1.874050815,54.81818181818183,0.909090909090909,-10.20408163265306
313,11.467901229858398,27.8334247097373,915.4587624628518,-10.823599605,0.344213415,-1.262115855,55.81818181818183,-9.363636363636365,-5.7142857142857135
314,11.500728130340576,27.84666855400428,915.5183310596344,-9.714467489999999,0.344213415,-1.262115855,55.81818181818183,-9.363636363636365,-5.7142857142857135
315,11.535578250885008,27.84666855400428,915.5183310596344,-9.714467489999999,0.344213415,-1.262115855,55.90909090909091,-20.909090909090907,-3.9795918367346936
316,11.573957204818724,27.8334247097373,915.5574088692632,-8.10813822,-0.15298374,-1.950542685,55.90909090909091,-20.909090909090907,-3.9795918367346936
317,11.615405082702638,27.837839329149574,915.5964867091802,-8.10813822,-0.15298374,-1.950542685,56.000000000000014,-34.54545454545454,-8.061224489795919
318,11.651406049728392,27.842253943905234,915.587191748124,-8.10813822,-0.15298374,-1.950542685,56.000000000000014,-34.54545454545454,-8.061224489795919
319,11.690881967544556,27.837839329149574,915.6746424798841,-9.370254075,1.7975589449999998,-4.398282525,56.18181818181817,-44.81818181818183,-19.69387755102041
320,11.724306106567383,27.84666855400428,915.587191748124,-9.370254075,1.7975589449999998,-4.398282525,59.09090909090908,-42.090909090909086,-30.0
321,11.767049074172974,27.842253943905234,915.7435019374569,-9.370254075,1.7975589449999998,-4.398282525,59.09090909090908,-42.090909090909086,-30.0
322,11.800658226013184,27.84666855400428,915.7527983717602,-9.10253253,0.61193496,-3.097920735,62.0,-33.54545454545454,-35.61224489795918
323,11.83393716812134,27.837839329149574,915.734205488475,-9.10253253,0.61193496,-3.097920735,62.0,-33.54545454545454,-35.61224489795918
324,11.865298986434937,27.842253943905234,915.7527983717602,-9.10253253,0.61193496,-3.097920735,62.0,-33.54545454545454,-40.0
325,11.897134065628054,27.842253943905234,915.840251541068,-9.905697165,-1.45334553,-2.868445125,62.63636363636363,-23.63636363636364,-40.0
326,11.930822134017943,27.84666855400428,915.8495486826304,-9.905697165,-1.45334553,-2.868445125,62.63636363636363,-14.363636363636365,-41.42857142857143
327,11.967726230621338,27.851083159446723,915.7620947913831,-9.905697165,-1.45334553,-2.868445125,62.36363636363637,-14.363636363636365,-41.42857142857143
328,12.00029706954956,27.84666855400428,915.9388903557902,-11.244304889999999,1.07088618,-2.180018295,60.81818181818181,-5.8181818181818175,-36.0204081632653
329,12.034822225570679,27.84666855400428,915.9184084119529,-11.244304889999999,1.07088618,-2.180018295,60.81818181818181,-5.8181818181818175,-36.0204081632653
330,12.073010206222536,27.837839329149574,915.9872667745503,-11.244304889999999,0.15298374,-1.185623985,59.27272727272728,-2.5454545454545454,-22.448979591836732
331,12.115355253219604,27.842253943905234,915.899812611522,-9.79095936,0.15298374,-1.185623985,59.27272727272728,-2.5454545454545454,-22.448979591836732
332,12.148687124252318,27.837839329149574,915.90911051908,-9.79095936,0.15298374,-1.185623985,57.63636363636364,-14.545454545454543,-8.36734693877551
333,12.182552099227903,27.837839329149574,916.115679252744,-9.79095936,2.409493905,-3.097920735,57.63636363636364,-14.545454545454543,-8.36734693877551
334,12.214956998825071,27.837839329149574,915.9295920652323,-10.32640245,2.409493905,-3.097920735,56.545454545454554,-29.363636363636363,-8.46938775510204
335,12.255722045898436,27.837839329149574,916.046824374916,-10.32640245,2.409493905,-3.097920735,56.545454545454554,-29.363636363636363,-8.46938775510204
336,12.296322107315063,27.82901008566841,916.1454559123782,-11.93273172,0.53544309,-0.8031646349999999,57.999999999999986,-29.272727272727277,-9.795918367346937
337,12.329652070999146,27.837839329149574,916.046824374916,-11.93273172,0.53544309,-0.8031646349999999,57.999999999999986,-29.272727272727277,-9.795918367346937
338,12.36615800857544,27.82901008566841,916.1249793995778,-11.93273172,0.53544309,-0.8031646349999999,57.999999999999986,-29.272727272727277,-9.795918367346937
339,12.3991060256958,27.82901008566841,916.1249793995778,-9.1790244,-1.950542685,-2.06528049,57.999999999999986,-29.272727272727277,-14.183673469387758
340,12.436869144439695,27.824595456942916,916.2422121639122,-9.1790244,-1.950542685,-2.06528049,58.90909090909092,-31.818181818181817,-14.183673469387758
341,12.473851203918455,27.824595456942916,916.0970789150136,-9.1790244,-1.950542685,-2.06528049,60.09090909090908,-39.545454545454554,-29.183673469387756
342,12.507822036743164,27.8201808235608,916.2440832440392,-8.911302855,0.15298374,-2.715461385,60.09090909090908,-39.545454545454554,-29.183673469387756
343,12.550096273422238,27.811351542826742,916.1659309234536,-8.911302855,0.15298374,-2.715461385,60.27272727272728,-31.818181818181817,-47.44897959183674
344,12.586475133895876,27.811351542826742,916.273857402602,-8.911302855,0.15298374,-0.91790244,60.27272727272728,-31.818181818181817,-47.44897959183674
345,12.621710062026978,27.81576618552208,916.2645553407103,-11.703256109999996,-2.333002035,-0.91790244,59.09090909090908,-11.272727272727272,-49.897959183673464
346,12.662286043167114,27.81576618552208,916.3036308401396,-11.703256109999996,-2.333002035,-0.91790244,59.09090909090908,-11.272727272727272,-49.897959183673464
347,12.699888229370115,27.80693689547479,916.3036308401396,-12.2386992,2.2947561,-5.775136184999999,57.272727272727266,4.454545454545455,-34.285714285714285
348,12.736100196838379,27.811351542826742,916.4208575203476,-12.2386992,2.2947561,-5.775136184999999,57.272727272727266,4.454545454545455,-14.69387755102041
349,12.771101236343382,27.811351542826742,916.4897045055408,-12.2386992,2.2947561,-5.775136184999999,52.545454545454554,7.727272727272727,-14.69387755102041
350,12.807699918746946,27.8201808235608,916.3520091684364,-9.370254075,0.879656505,-3.90108537,52.545454545454554,7.545454545454548,-1.2244897959183672
351,12.840057134628298,27.8201808235608,916.3817819299569,-9.370254075,0.879656505,-3.90108537,45.63636363636363,7.545454545454548,-1.2244897959183672
352,12.885419130325316,27.80693689547479,916.5176173211423,-9.370254075,0.879656505,-3.90108537,41.18181818181817,-0.8181818181818182,8.061224489795919
353,12.925401210784912,27.81576618552208,916.4599331410622,-9.40850001,1.338607725,-5.163201224999999,41.18181818181817,-0.8181818181818182,8.061224489795919
354,12.962371110916138,27.811351542826742,916.4785409334424,-9.40850001,1.338607725,-5.163201224999999,42.454545454545446,-13.363636363636365,11.428571428571427
355,12.996570110321045,27.81576618552208,916.4897045055408,-8.4141057,2.256510165,-0.267721545,42.454545454545446,-13.363636363636365,11.428571428571427
356,13.032898187637327,27.80693689547479,916.5957701875267,-8.4141057,2.256510165,-0.267721545,44.90909090909091,-20.272727272727277,9.591836734693874
357,13.072468042373654,27.81576618552208,916.6348466662146,-8.4141057,2.256510165,-0.267721545,44.90909090909091,-20.272727272727277,10.306122448979592
358,13.106152296066282,27.824595456942916,916.6050751666605,-9.714467489999999,1.6063292699999998,0.22947561,44.454545454545446,-20.72727272727273,10.306122448979592
359,13.140115976333616,27.8201808235608,916.7129997145912,-9.714467489999999,1.6063292699999998,0.22947561,39.36363636363636,-20.72727272727273,15.714285714285712
360,13.179110288619997,27.824595456942916,916.7129997145912,-9.714467489999999,1.6063292699999998,0.22947561,39.36363636363636,-20.72727272727273,15.714285714285712
361,13.21542191505432,27.8201808235608,916.6348466662146,-11.817993915,1.874050815,-4.398282525,34.18181818181817,-20.63636363636364,18.57142857142857
362,13.248040199279785,27.8201808235608,916.7613827367362,-11.817993915,1.874050815,-4.398282525,34.18181818181817,-20.63636363636364,18.57142857142857
363,13.284850120544432,27.8201808235608,916.7316118681335,-11.817993915,1.874050815,-4.398282525,33.18181818181818,-15.72727272727273,19.28571428571429
364,13.320426940917969,27.8201808235608,916.7223057987146,-12.46817481,1.185623985,-4.245298785,33.18181818181818,-15.72727272727273,19.28571428571429
365,13.358374118804932,27.8201808235608,916.8004597050968,-12.46817481,1.185623985,-4.245298785,35.63636363636364,-6.181818181818182,15.612244897959185
366,13.395203113555906,27.8201808235608,916.8879212755788,-12.46817481,1.185623985,-4.245298785,35.63636363636364,-6.181818181818182,15.612244897959185
367,13.428615093231201,27.8334247097373,916.8097665111759,-9.599729685,0.650180895,-2.027034555,36.63636363636364,6.090909090909091,8.775510204081632
368,13.468537092208862,27.82901008566841,916.8786137328386,-9.599729685,0.650180895,-2.027034555,36.63636363636364,6.090909090909091,8.775510204081632
369,13.506428241729736,27.824595456942916,916.9567678819527,-8.873056919999998,-2.06528049,-2.75370732,35.63636363636364,20.63636363636364,-7.244897959183674
370,13.548005104064943,27.824595456942916,916.9269987032949,-8.873056919999998,-2.06528049,-2.75370732,35.0,27.454545454545453,-23.469387755102044
371,13.585216999053955,27.81576618552208,916.9567678819527,-8.873056919999998,-2.06528049,-2.75370732,35.0,27.454545454545453,-23.469387755102044
372,13.62052011489868,27.82901008566841,917.0442311685202,-7.840416675,-3.250904475,-3.021428865,36.90909090909091,26.81818181818182,-30.306122448979597
373,13.663460016250609,27.824595456942916,916.9660761613562,-7.840416675,-3.250904475,-3.021428865,36.90909090909091,26.81818181818182,-30.306122448979597
374,13.69686198234558,27.82901008566841,917.0628491565108,-7.840416675,-3.250904475,-3.021428865,40.18181818181817,24.545454545454547,-27.95918367346939
375,13.732134103775024,27.82901008566841,917.0535401698743,-10.02043497,-2.52423171,-1.07088618,40.18181818181817,24.545454545454547,-27.95918367346939
376,13.772305250167847,27.837839329149574,917.0535401698743,-10.02043497,-2.52423171,-1.07088618,41.81818181818181,21.090909090909086,-17.244897959183675
377,13.810029029846191,27.842253943905234,917.141005758402,-10.02043497,-2.868445125,-2.791953255,41.81818181818181,0.4545454545454545,6.632653061224489
378,13.845430135726929,27.837839329149574,917.141005758402,-11.817993915,-2.868445125,-2.791953255,42.36363636363637,0.4545454545454545,6.632653061224489
379,13.882004976272585,27.84666855400428,917.1987042439713,-11.817993915,-2.868445125,-2.791953255,43.18181818181817,-48.09090909090909,-2.5510204081632644
380,13.925364971160889,27.84666855400428,917.1596251608356,-12.00922359,5.73689025,-3.939331305,43.18181818181817,-48.09090909090909,-2.5510204081632644
381,13.961368083953856,27.851083159446723,917.2564041743137,-12.00922359,5.73689025,-3.939331305,47.454545454545446,-58.27272727272727,-30.0
382,13.996536016464233,27.851083159446723,917.2470937732528,-12.00922359,5.73689025,-3.939331305,47.454545454545446,-58.27272727272727,-30.0
383,14.041766166687012,27.842253943905234,917.2377833574641,-9.255516270000001,2.44773984,-1.950542685,53.81818181818183,-51.63636363636363,-33.57142857142857
384,14.076951980590819,27.842253943905234,917.2377833574641,-9.255516270000001,2.44773984,-1.950542685,53.81818181818183,-47.454545454545446,-33.36734693877551
385,14.115176916122435,27.84666855400428,917.2582408888995,-9.255516270000001,2.06528049,-2.027034555,56.45454545454546,-47.454545454545446,-33.36734693877551
386,14.148633241653442,27.837839329149574,917.3066305083506,-8.337613829999999,2.06528049,-2.027034555,57.18181818181817,-45.72727272727273,-34.183673469387756
387,14.185963153839111,27.837839329149574,917.3457093445924,-8.337613829999999,2.06528049,-2.027034555,57.18181818181817,-45.72727272727273,-34.183673469387756
388,14.222838163375854,27.82901008566841,917.2786969184677,-10.058680905,3.786347565,1.721067075,56.90909090909091,-46.090909090909086,-34.79591836734694
389,14.26211404800415,27.837839329149574,917.3661643593343,-10.058680905,3.786347565,1.721067075,56.90909090909091,-46.090909090909086,-34.79591836734694
390,14.295438051223753,27.837839329149574,917.3754762926296,-10.058680905,3.786347565,1.721067075,57.81818181818181,-43.0,-23.77551020408163
391,14.334069013595581,27.824595456942916,917.5131637613715,-12.2386992,3.8245935,-1.338607725,57.81818181818181,-43.0,-23.77551020408163
392,14.371387243270874,27.82901008566841,917.591319618613,-12.2386992,3.8245935,-1.338607725,56.999999999999986,-25.090909090909086,-6.224489795918366
393,14.416710138320921,27.8201808235608,917.5131637613715,-12.2386992,3.8245935,-1.338607725,56.999999999999986,-25.090909090909086,-8.979591836734693
394,14.451858282089232,27.81576618552208,917.5726912583347,-13.53906099,-2.14177236,-4.168806914999999,54.272727272727266,-0.5454545454545455,-8.979591836734693
395,14.490025043487549,27.8201808235608,917.6117684958338,-13.53906099,-2.14177236,-4.168806914999999,52.90909090909091,7.8181818181818175,-15.918367346938775
396,14.556392908096313,27.802522243466232,917.5056725053553,-13.30958538,-0.650180895,-6.50180895,54.18181818181818,8.454545454545455,-22.142857142857146
397,14.595865011215206,27.80693689547479,917.6806077546946,-13.30958538,-0.650180895,-6.50180895,54.18181818181818,8.454545454545455,-22.142857142857146
398,14.628808021545412,27.811351542826742,917.7196847149771,-10.747107734999998,-0.8031646349999999,-4.015823175,53.63636363636364,9.636363636363635,-38.265306122448976
399,14.666059017181395,27.811351542826742,917.7196847149771,-10.747107734999998,-0.8031646349999999,-4.015823175,53.63636363636364,9.636363636363635,-38.265306122448976
400,14.70224905014038,27.824595456942916,917.6303975927923,-10.747107734999998,-0.8031646349999999,-4.015823175,49.90909090909091,6.8181818181818175,-53.877551020408156
401,14.70224905014038,27.78486358886585,917.6731061160089,-10.976583345,-2.638969515,-0.420705285,46.0,11.18181818181818,-59.28571428571429
402,14.85333299636841,27.78927825950086,917.7512564442336,-10.288156515,-3.250904475,-3.021428865,43.18181818181817,11.18181818181818,-59.28571428571429
403,14.893579959869383,27.802522243466232,917.9075574652466,-10.288156515,-3.250904475,-3.021428865,40.545454545454554,22.090909090909086,-43.67346938775511
404,14.932235002517698,27.802522243466232,917.8759928599031,-10.594123995,-0.573689025,-5.50741464,40.545454545454554,22.090909090909086,-43.67346938775511
405,14.97155499458313,27.79810758680105,917.8964348932263,-10.594123995,-0.573689025,-5.50741464,34.45454545454545,28.454545454545453,-27.857142857142854
406,15.007862091064451,27.811351542826742,917.8853100088842,-10.594123995,-0.573689025,-5.50741464,34.45454545454545,28.454545454545453,-27.857142857142854
407,15.044657230377197,27.811351542826742,917.8853100088842,-12.429928875,-2.485985775,-4.5895122,24.090909090909086,30.181818181818183,-11.224489795918368
408,15.077571153640749,27.824595456942916,918.050938720974,-12.429928875,-2.485985775,-4.5895122,24.090909090909086,30.181818181818183,-11.224489795918368
409,15.107893943786621,27.82901008566841,917.9821007274621,-12.429928875,-2.485985775,-4.5895122,16.727272727272727,13.363636363636365,15.30612244897959
410,15.144870281219482,27.81576618552208,917.9821007274621,-12.2386992,1.45334553,-7.41971139,16.727272727272727,13.363636363636365,15.30612244897959
411,15.17802119255066,27.824595456942916,918.0695758919838,-12.2386992,1.45334553,-7.41971139,16.545454545454547,-22.63636363636364,25.510204081632654
412,15.215510129928589,27.82901008566841,918.050938720974,-12.2386992,1.45334553,-7.41971139,16.545454545454547,-22.63636363636364,17.653061224489797
413,15.25324010848999,27.8201808235608,918.0304972152504,-10.86184554,2.06528049,-1.7975589449999998,20.181818181818176,-42.0,17.653061224489797
414,15.287063121795654,27.82901008566841,918.1774924213856,-10.86184554,2.06528049,-1.7975589449999998,21.090909090909086,-51.81818181818183,11.530612244897961
415,15.32816219329834,27.81576618552208,918.2165708513562,-10.86184554,2.06528049,-1.7975589449999998,21.090909090909086,-51.81818181818183,11.530612244897961
416,15.359611272811888,27.824595456942916,918.1495332833997,-10.288156515,2.21826423,-3.327396345,20.72727272727273,-58.90909090909092,3.571428571428571
417,15.393946170806883,27.824595456942916,918.1774924213856,-10.288156515,2.21826423,-3.327396345,20.72727272727273,-58.90909090909092,3.571428571428571
418,15.428590059280397,27.8201808235608,918.2352109396224,-10.288156515,2.21826423,-3.327396345,21.545454545454543,-57.999999999999986,6.224489795918366
419,15.467803239822388,27.82901008566841,918.1868121045502,-12.2386992,3.633363825,-3.786347565,21.545454545454543,-57.999999999999986,6.224489795918366
420,15.501305103302,27.824595456942916,918.3133693641436,-12.2386992,3.633363825,-3.786347565,25.090909090909086,-38.27272727272727,19.183673469387756
421,15.532462120056154,27.824595456942916,918.3133693641436,-12.2386992,3.633363825,-3.786347565,25.090909090909086,-38.27272727272727,19.183673469387756
422,15.569522142410278,27.8334247097373,918.2742901366823,-12.774142289999997,0.30596748,-3.8245935,27.63636363636364,-5.272727272727272,19.28571428571429
423,15.604680061340332,27.8334247097373,918.3133693641436,-12.774142289999997,0.30596748,-3.8245935,27.63636363636364,-5.272727272727272,19.28571428571429
424,15.642444133758543,27.837839329149574,918.3915279102783,-12.774142289999997,-2.485985775,-3.786347565,29.0,18.63636363636364,3.877551020408163
425,15.677852153778076,27.837839329149574,918.3524486220085,-11.970977655,-2.485985775,-3.786347565,29.0,18.63636363636364,3.877551020408163
426,15.715073108673094,27.824595456942916,918.4399290926776,-11.970977655,-2.485985775,-3.786347565,32.81818181818182,25.545454545454547,-10.612244897959185
427,15.750861167907715,27.837839329149574,918.4883310274122,-11.320796759999999,-2.37124797,-3.13616667,32.81818181818182,25.545454545454547,-10.612244897959185
428,15.78355097770691,27.842253943905234,918.4883310274122,-11.320796759999999,-2.37124797,-3.13616667,39.72727272727273,22.818181818181817,-18.57142857142857
429,15.816967964172365,27.84666855400428,918.4492509416377,-11.320796759999999,-2.37124797,-3.13616667,39.72727272727273,22.818181818181817,-18.57142857142857
430,15.852256059646605,27.842253943905234,918.4194923521272,-10.55587806,-1.491591465,-1.30036179,44.27272727272727,20.090909090909086,-20.612244897959183
431,15.886216878890991,27.837839329149574,918.506975417726,-10.55587806,-1.491591465,-1.30036179,44.27272727272727,20.090909090909086,-20.612244897959183
432,15.920113086700441,27.84666855400428,918.5851371538816,-10.55587806,-1.491591465,-1.30036179,45.454545454545446,18.909090909090914,-23.26530612244898
433,15.953526020050049,27.851083159446723,918.4976532299522,-9.79095936,-3.786347565,-1.5298374,45.454545454545446,18.909090909090914,-16.3265306122449
434,15.991876125335693,27.84666855400428,918.67262265807,-9.79095936,-3.786347565,-1.5298374,45.36363636363636,16.545454545454547,-16.3265306122449
435,16.031996250152588,27.84666855400428,918.6148947747789,-9.79095936,-3.786347565,-1.5298374,47.0,2.8181818181818183,-0.5102040816326531
436,16.068018198013306,27.851083159446723,918.5851371538816,-9.217270335,-0.61193496,-7.304973585,47.0,2.8181818181818183,-0.5102040816326531
437,16.10942316055298,27.84666855400428,918.6446516746344,-9.217270335,-0.61193496,-7.304973585,50.90909090909091,-12.363636363636365,1.3265306122448979
438,16.144176244735714,27.85549776023254,918.732136593351,-9.217270335,-0.61193496,-7.304973585,50.90909090909091,-12.363636363636365,1.3265306122448979
439,16.18057918548584,27.84666855400428,918.6837319124797,-10.364648385,0.038245935,-5.81338212,54.36363636363636,-7.272727272727272,-5.3061224489795915
440,16.21625018119812,27.84666855400428,918.6632990116967,-10.364648385,0.038245935,-5.81338212,54.36363636363636,-7.272727272727272,-5.3061224489795915
441,16.249386072158813,27.84666855400428,918.8102979578352,-10.364648385,0.038245935,-5.81338212,54.36363636363636,-0.18181818181818182,-9.69387755102041
442,16.281735181808475,27.851083159446723,918.7805420265607,-11.93273172,-2.638969515,-4.933725614999999,54.36363636363636,-0.18181818181818182,-9.69387755102041
443,16.318958044052124,27.851083159446723,918.8884594440167,-11.93273172,-2.638969515,-4.933725614999999,55.09090909090909,-6.0,-6.326530612244897
444,16.357423067092896,27.842253943905234,918.9368664723117,-13.500815055,2.83019919,-3.0596748,55.09090909090909,-6.0,-6.326530612244897
445,16.391911268234253,27.84666855400428,918.9572944292175,-13.500815055,2.83019919,-3.0596748,56.45454545454546,-13.272727272727273,-5.7142857142857135
446,16.425454139709473,27.842253943905234,918.9963749104604,-13.500815055,2.83019919,-3.0596748,56.45454545454546,-13.272727272727273,-2.0408163265306114
447,16.464420080184933,27.837839329149574,918.9572944292175,-12.506420745,1.262115855,-2.715461385,54.0,-10.545454545454545,-2.0408163265306114
448,16.505096912384033,27.84666855400428,918.9572944292175,-12.506420745,1.262115855,-2.715461385,48.09090909090909,-6.8181818181818175,4.6938775510204085
449,16.54185128211975,27.842253943905234,918.9572944292175,-12.506420745,1.262115855,-2.715461385,48.09090909090909,-6.8181818181818175,4.6938775510204085
450,16.57436323165894,27.84666855400428,918.9963749104604,-12.774142289999997,1.30036179,-6.19584147,43.27272727272727,-3.8181818181818175,8.46938775510204
451,16.61488628387451,27.84666855400428,919.113616536788,-12.774142289999997,1.30036179,-6.19584147,43.27272727272727,-3.8181818181818175,8.46938775510204
452,16.655113935470578,27.837839329149574,919.0168006590142,-12.774142289999997,1.30036179,-6.19584147,42.0,4.545454545454546,4.795918367346937
453,16.691277027130123,27.84666855400428,919.0354554221353,-10.47938619,1.7975589449999998,-3.862839435,42.0,4.545454545454546,4.795918367346937
454,16.724426984786987,27.84666855400428,919.074535964244,-10.47938619,1.7975589449999998,-3.862839435,38.72727272727273,20.81818181818182,-11.326530612244898
455,16.758002996444702,27.837839329149574,919.1526971397689,-10.47938619,1.7975589449999998,-3.862839435,38.72727272727273,20.81818181818182,-11.326530612244898
456,16.79271697998047,27.837839329149574,919.1229446328775,-11.77974798,-2.485985775,-2.37124797,34.18181818181817,28.272727272727277,-35.30612244897959
457,16.825823068618774,27.84666855400428,919.1620256042092,-11.77974798,-2.485985775,-2.37124797,34.18181818181817,28.272727272727277,-35.30612244897959
458,16.863757133483883,27.842253943905234,919.1917777731886,-12.123961395,-1.950542685,-3.74810163,32.54545454545454,27.72727272727273,-41.42857142857143
459,16.908309936523438,27.84666855400428,919.3387702902952,-12.123961395,-1.950542685,-3.74810163,33.27272727272727,28.363636363636367,-35.918367346938766
460,16.946482896804806,27.837839329149574,919.3481006112864,-12.123961395,-1.950542685,-3.74810163,33.27272727272727,28.363636363636367,-35.918367346938766
461,16.982141256332397,27.837839329149574,919.1917777731886,-11.741502045,-0.53544309,-4.321790655,30.72727272727273,29.45454545454546,-37.95918367346938
462,17.015153169631958,27.8334247097373,919.3090198560958,-11.741502045,-0.53544309,-4.321790655,30.72727272727273,29.45454545454546,-37.95918367346938
463,17.049906969070435,27.84666855400428,919.3481006112864,-11.741502045,-0.53544309,-4.321790655,24.090909090909086,29.909090909090907,-45.20408163265306
464,17.082542181015015,27.84666855400428,919.387181396924,-12.582912615,-3.8245935,-0.497197155,24.090909090909086,29.909090909090907,-45.20408163265306
465,17.115543127059937,27.851083159446723,919.3574309174868,-12.582912615,-3.8245935,-0.497197155,19.545454545454543,33.63636363636363,-38.46938775510204
466,17.150078058242798,27.842253943905234,919.3481006112864,-12.582912615,-3.8245935,-0.497197155,19.545454545454543,33.63636363636363,-38.46938775510204
467,17.18255615234375,27.842253943905234,919.3574309174868,-11.588518305000003,-1.07088618,-5.010217484999999,18.090909090909086,29.72727272727273,-6.428571428571428
468,17.213812112808228,27.85549776023254,919.4262622130099,-11.588518305000003,-1.07088618,-5.010217484999999,18.090909090909086,29.72727272727273,-6.428571428571428
469,17.25616717338562,27.84666855400428,919.3481006112864,-11.588518305000003,-1.07088618,-5.010217484999999,17.727272727272727,9.363636363636365,16.020408163265305
470,17.290514230728146,27.842253943905234,919.5825857818706,-9.982189035,1.37685366,-4.74249594,17.727272727272727,9.363636363636365,16.020408163265305
471,17.325119972229004,27.842253943905234,919.4653430595457,-9.982189035,1.37685366,-4.74249594,14.545454545454543,-6.363636363636363,23.77551020408163
472,17.363176345825195,27.842253943905234,919.4950921421215,-9.982189035,1.37685366,-4.74249594,14.545454545454543,-7.727272727272727,23.469387755102044
473,17.405221223831173,27.837839329149574,919.5044239365336,-10.288156515,-0.61193496,-6.65479269,13.727272727272727,-7.727272727272727,23.469387755102044
474,17.438610315322876,27.84666855400428,919.5044239365336,-10.288156515,-0.61193496,-6.65479269,18.818181818181817,-8.636363636363635,23.36734693877551
475,17.477938175201416,27.842253943905234,919.60300093646,-10.594123995,0.038245935,-4.933725614999999,18.818181818181817,-8.636363636363635,23.36734693877551
476,17.514572143554688,27.842253943905234,919.60300093646,-10.594123995,0.038245935,-4.933725614999999,26.81818181818182,-12.363636363636365,21.326530612244895
477,17.55540919303894,27.842253943905234,919.5825857818706,-10.594123995,0.038245935,-4.933725614999999,26.81818181818182,-12.363636363636365,21.326530612244895
478,17.588465213775635,27.84666855400428,919.6794142403129,-12.39168294,0.497197155,-2.791953255,34.81818181818182,-15.0,17.551020408163264
479,17.631016969680786,27.84666855400428,919.6998287783059,-12.39168294,0.497197155,-2.791953255,34.81818181818182,-15.0,17.551020408163264
480,17.666297197341915,27.84666855400428,919.7575778027433,-12.39168294,0.497197155,-2.791953255,39.0,-14.909090909090908,14.591836734693874
481,17.703111171722412,27.84666855400428,919.8153282718436,-15.833817089999997,0.420705285,-4.6277581350000006,39.0,-14.909090909090908,14.591836734693874
482,17.735961198806763,27.85549776023254,919.7278295980861,-15.833817089999997,0.420705285,-4.6277581350000006,40.27272727272727,-9.909090909090908,12.244897959183673
483,17.77454686164856,27.859912356361743,919.7966596296538,-15.833817089999997,0.420705285,-4.6277581350000006,42.545454545454554,-4.363636363636364,7.244897959183674
484,17.814011096954342,27.85549776023254,919.7762457082234,-14.189241885,-1.568083335,-4.5895122,42.545454545454554,-4.363636363636364,7.244897959183674
485,17.846188068389893,27.864326947834343,919.7855796387506,-14.189241885,-1.568083335,-4.5895122,46.090909090909086,-4.181818181818182,4.081632653061225
486,17.87888216972351,27.864326947834343,919.8153282718436,-14.189241885,-1.568083335,-3.21265854,46.090909090909086,-4.181818181818182,4.081632653061225
487,17.91656923294067,27.864326947834343,919.7371631750681,-11.129567084999998,-1.109132115,-3.21265854,48.09090909090909,-6.0,3.673469387755103
488,17.95438528060913,27.864326947834343,919.8730801855836,-11.129567084999998,-1.109132115,-3.21265854,48.09090909090909,-6.0,3.673469387755103
489,17.994404077529907,27.864326947834343,919.8153282718436,-7.687432934999999,-0.267721545,-3.097920735,48.272727272727266,-5.909090909090908,1.7346938775510206
490,18.032648086547848,27.864326947834343,919.9605823128882,-7.687432934999999,-0.267721545,-3.097920735,48.272727272727266,-5.909090909090908,1.7346938775510206
491,18.06656908988953,27.864326947834343,919.9419115494529,-7.687432934999999,-0.267721545,-3.097920735,47.454545454545446,-1.5454545454545454,1.530612244897959
492,18.10526418685913,27.864326947834343,919.990330360784,-9.217270335,-1.83580488,-5.163201224999999,47.454545454545446,-1.5454545454545454,1.530612244897959
493,18.138005018234246,27.864326947834343,919.9809946033048,-9.217270335,-1.83580488,-5.163201224999999,47.81818181818183,2.0,-1.3265306122448979
494,18.173508167266846,27.864326947834343,920.0200776876301,-9.217270335,-1.83580488,-5.163201224999999,47.81818181818183,2.0,-1.3265306122448979
495,18.20671510696411,27.859912356361743,919.990330360784,-9.293762205,-2.06528049,-4.857233744999999,50.63636363636363,-0.4545454545454545,-1.8367346938775513
496,18.24136018753052,27.864326947834343,920.0889070703437,-9.293762205,-2.06528049,-4.857233744999999,54.727272727272734,-10.0,-2.8571428571428568
497,18.281055927276608,27.868741534650322,920.0889070703437,-9.293762205,-2.06528049,-4.857233744999999,54.727272727272734,-10.0,-2.8571428571428568
498,18.319994211196896,27.864326947834343,920.1670727156223,-8.873056919999998,0.30596748,-3.0596748,56.63636363636364,-17.454545454545457,-5.408163265306122
499,18.35618615150452,27.864326947834343,920.263915169588,-8.873056919999998,0.30596748,-3.0596748,56.63636363636364,-17.454545454545457,-5.408163265306122
500,18.38657212257385,27.859912356361743,920.2545768336201,-8.873056919999998,0.30596748,-3.0596748,57.36363636363636,-24.72727272727273,-5.918367346938777
501,18.420088052749634,27.868741534650322,920.3420825321634,-11.77974798,2.52423171,-3.74810163,57.36363636363636,-24.72727272727273,-5.918367346938777
502,18.459681987762448,27.868741534650322,920.2359001172085,-11.77974798,2.52423171,-3.74810163,57.45454545454546,-27.72727272727273,-6.836734693877551
503,18.49651002883911,27.864326947834343,920.3140652696312,-10.63236993,2.75370732,-5.04846342,57.45454545454546,-27.72727272727273,-6.836734693877551
504,18.53684711456299,27.85549776023254,920.4015703830631,-10.63236993,2.75370732,-5.04846342,58.81818181818181,-24.545454545454547,-9.89795918367347
505,18.568647146224972,27.85549776023254,920.3047261524687,-10.63236993,2.75370732,-5.04846342,58.81818181818181,-24.545454545454547,-9.89795918367347
506,18.60561990737915,27.864326947834343,920.4015703830631,-10.40289432,1.37685366,-3.5951178899999996,60.90909090909092,-18.181818181818183,-17.04081632653061
507,18.641333103179928,27.859912356361743,920.392230544004,-10.40289432,1.37685366,-3.5951178899999996,60.90909090909092,-18.181818181818183,-17.04081632653061
508,18.676841974258426,27.864326947834343,920.4015703830631,-10.40289432,1.37685366,-3.5951178899999996,60.90909090909092,-18.181818181818183,-17.04081632653061
509,18.714312076568604,27.85549776023254,920.5094786842478,-12.16220733,1.338607725,-2.333002035,62.72727272727273,-13.363636363636365,-26.632653061224488
510,18.751193046569824,27.868741534650322,920.4797365161224,-12.16220733,1.338607725,-2.333002035,62.72727272727273,-13.363636363636365,-26.632653061224488
511,18.79299402236938,27.84666855400428,920.4610553497271,-12.16220733,1.338607725,-2.333002035,62.36363636363637,-12.090909090909092,-25.918367346938776
512,18.829013109207157,27.85549776023254,920.4610553497271,-9.905697165,0.61193496,-5.20144716,62.36363636363637,-12.090909090909092,-25.918367346938776
513,18.859890937805172,27.85549776023254,920.5188196283929,-9.905697165,0.61193496,-5.20144716,62.36363636363637,-10.909090909090908,-29.081632653061224
514,18.903480052948,27.85549776023254,920.5392201313113,-8.834810985,0.267721545,-4.13056098,62.36363636363637,-10.909090909090908,-29.081632653061224
515,18.936866998672482,27.851083159446723,920.5783025678477,-8.834810985,0.267721545,-4.13056098,62.545454545454554,-11.090909090909092,-34.285714285714285
516,18.970105171203613,27.85549776023254,920.665809964853,-8.834810985,0.267721545,-4.13056098,62.545454545454554,-11.090909090909092,-34.285714285714285
517,19.00915718078613,27.851083159446723,920.6173850348825,-8.56708944,-0.30596748,-1.491591465,61.454545454545446,-11.0,-40.510204081632644
518,19.04591417312622,27.84666855400428,920.6768644143491,-8.56708944,-0.30596748,-1.491591465,59.72727272727273,-10.0,-50.0
519,19.08825612068176,27.84666855400428,920.7941099712749,-8.56708944,-0.30596748,-1.491591465,59.72727272727273,-10.0,-50.0
520,19.124545097351074,27.842253943905234,920.8722738284265,-10.7088618,0.61193496,-1.45334553,59.0,-10.272727272727272,-51.3265306122449
521,19.162854194641117,27.84666855400428,920.7550280884609,-10.7088618,0.61193496,-1.45334553,59.0,-10.272727272727272,-51.3265306122449
522,19.20029616355896,27.837839329149574,920.7754220556159,-10.7088618,0.61193496,-1.45334553,60.0,-11.454545454545457,-48.775510204081634
523,19.23661708831787,27.837839329149574,920.7363409095452,-10.135172775000001,1.185623985,-1.874050815,60.0,-11.454545454545457,-48.775510204081634
524,19.270182132720947,27.8334247097373,920.8535844392787,-10.135172775000001,1.185623985,-1.874050815,60.36363636363637,-13.090909090909092,-48.67346938775511
525,19.304040193557736,27.837839329149574,920.8238475658122,-10.135172775000001,1.185623985,-1.874050815,60.36363636363637,-13.090909090909092,-48.67346938775511
526,19.340954065322876,27.837839329149574,920.7958145204553,-9.33200814,-0.650180895,-1.37685366,60.0,-14.72727272727273,-48.877551020408156
527,19.377732038497925,27.84666855400428,920.9504378076205,-9.33200814,-0.650180895,-1.37685366,60.0,-14.72727272727273,-48.877551020408156
528,19.414503097534176,27.842253943905234,920.8833205916728,-13.233093509999996,0.30596748,-4.28354472,60.545454545454554,-15.27272727272727,-47.85714285714287
529,19.45108199119568,27.842253943905234,920.9410923837199,-13.233093509999996,0.30596748,-4.28354472,60.454545454545446,-14.636363636363635,-49.28571428571429
530,19.487154245376583,27.842253943905234,920.9113558027673,-13.233093509999996,0.30596748,-4.28354472,60.454545454545446,-14.636363636363635,-49.28571428571429
531,19.520742177963257,27.837839329149574,921.0192557482231,-12.850634159999997,2.180018295,-2.37124797,59.36363636363637,-14.363636363636365,-50.40816326530612
532,19.567095041275024,27.837839329149574,920.9801740507138,-12.850634159999997,2.180018295,-2.37124797,59.36363636363637,-14.363636363636365,-50.40816326530612
533,19.603324174880978,27.842253943905234,921.0286019088705,-12.850634159999997,2.180018295,-2.37124797,57.45454545454546,-16.18181818181818,-57.04081632653061
534,19.636099100112915,27.837839329149574,921.0676840052705,-8.337613829999999,-1.30036179,-0.61193496,57.45454545454546,-16.18181818181818,-57.04081632653061
535,19.67027521133423,27.84666855400428,921.077030519448,-8.337613829999999,-1.30036179,-0.61193496,55.272727272727266,-18.363636363636363,-60.0
536,19.708461046218872,27.84666855400428,921.1458482896288,-8.337613829999999,-1.30036179,-0.61193496,55.272727272727266,-18.363636363636363,-60.0
537,19.745661973953247,27.84666855400428,921.1161130147402,-6.922514235,-1.262115855,-0.15298374,53.90909090909091,-15.545454545454543,-61.836734693877546
538,19.778951168060303,27.851083159446723,921.1458482896288,-6.922514235,-1.262115855,-0.15298374,53.90909090909091,-15.545454545454543,-61.836734693877546
539,19.81609010696411,27.851083159446723,921.1458482896288,-6.922514235,0.114737805,0.038245935,53.454545454545446,-8.90909090909091,-61.22448979591836
540,19.852474212646484,27.84666855400428,921.16454277663,-8.79656505,0.114737805,0.038245935,53.454545454545446,-8.90909090909091,-56.93877551020409
541,19.886802196502686,27.851083159446723,921.16454277663,-8.79656505,0.114737805,0.038245935,53.63636363636364,-2.4545454545454546,-56.93877551020409
542,19.92439913749695,27.84666855400428,921.2240126960754,-11.359042695,-1.45334553,-2.562477645,53.272727272727266,3.090909090909091,-52.040816326530624
543,19.963829040527344,27.84666855400428,921.2630949450866,-11.359042695,-1.45334553,-2.562477645,53.272727272727266,3.090909090909091,-52.040816326530624
544,20.000858068466183,27.84666855400428,921.2817916423321,-11.359042695,-1.45334553,-2.562477645,52.63636363636364,9.363636363636365,-44.489795918367356
545,20.04246616363525,27.84666855400428,921.3990407827855,-13.84502847,0.650180895,-2.60072358,52.63636363636364,9.363636363636365,-44.489795918367356
546,20.074218988418576,27.837839329149574,921.389691336464,-13.84502847,0.650180895,-2.60072358,50.36363636363637,14.18181818181818,-36.42857142857142
547,20.111218214035038,27.851083159446723,921.3990407827855,-13.84502847,0.650180895,-2.60072358,50.36363636363637,14.18181818181818,-36.42857142857142
548,20.144764184951782,27.851083159446723,921.4083902142504,-10.86184554,-0.91790244,-2.67721545,48.18181818181817,16.636363636363637,-23.26530612244898
549,20.179809093475342,27.85549776023254,921.3693067685278,-10.86184554,-0.91790244,-2.67721545,48.18181818181817,16.636363636363637,-23.26530612244898
550,20.21576499938965,27.851083159446723,921.417739630857,-10.86184554,-0.91790244,-2.67721545,47.545454545454554,11.18181818181818,-7.551020408163265
551,20.25199508666992,27.84666855400428,921.4083902142504,-7.11374391,0.038245935,-5.12495529,47.545454545454554,11.18181818181818,-7.551020408163265
552,20.284355163574215,27.85549776023254,921.3990407827855,-7.11374391,0.038245935,-5.12495529,48.90909090909091,-0.18181818181818182,-0.4081632653061225
553,20.315598011016846,27.859912356361743,921.3990407827855,-7.11374391,0.038245935,-5.12495529,48.90909090909091,-0.18181818181818182,-0.4081632653061225
554,20.35010313987732,27.85549776023254,921.5740751925924,-7.151989844999998,2.60072358,-5.27793903,51.81818181818183,-5.090909090909091,-0.9183673469387756
555,20.386731147766117,27.85549776023254,921.4772070290826,-7.151989844999998,2.60072358,-5.27793903,51.81818181818183,-5.090909090909091,-0.9183673469387756
556,20.422626018524166,27.85549776023254,921.5349912563521,-7.151989844999998,2.60072358,-5.27793903,54.81818181818183,4.0,-13.571428571428573
557,20.459267139434814,27.864326947834343,921.6131591593734,-12.200453264999997,0.650180895,-3.28915041,54.81818181818183,4.0,-13.571428571428573
558,20.48999118804932,27.859912356361743,921.652243156696,-12.200453264999997,0.650180895,-3.28915041,54.63636363636364,7.8181818181818175,-40.71428571428572
559,20.526844263076782,27.859912356361743,921.5740751925924,-12.200453264999997,0.650180895,-3.28915041,54.63636363636364,-5.454545454545454,-53.97959183673469
560,20.56052088737488,27.864326947834343,921.5740751925924,-9.1790244,-1.83580488,0.91790244,55.90909090909091,-5.454545454545454,-53.97959183673469
561,20.595197200775143,27.85549776023254,921.5927769282017,-9.1790244,-1.83580488,0.91790244,59.09090909090908,-17.636363636363637,-53.57142857142857
562,20.632155179977413,27.859912356361743,921.5740751925924,-4.780741875,-1.22386992,0.53544309,59.09090909090908,-17.636363636363637,-53.57142857142857
563,20.67192411422729,27.859912356361743,921.5740751925924,-4.780741875,-1.22386992,0.53544309,59.90909090909092,-23.72727272727273,-49.897959183673464
564,20.70823907852173,27.851083159446723,921.652243156696,-4.780741875,-1.22386992,0.53544309,59.90909090909092,-23.72727272727273,-49.897959183673464
565,20.73943400382996,27.864326947834343,921.7117065008945,-11.359042695,-2.21826423,2.2947561,61.36363636363637,-26.63636363636364,-45.61224489795917
566,20.775537252426147,27.851083159446723,921.6632711542765,-11.359042695,-2.21826423,2.2947561,61.36363636363637,-26.63636363636364,-45.61224489795917
567,20.80690193176269,27.85549776023254,921.9649162349837,-11.359042695,-2.21826423,2.2947561,61.63636363636363,-28.090909090909086,-42.755102040816325
568,20.849582195281982,27.851083159446723,921.769495331932,-12.00922359,1.91229675,0.726672765,61.63636363636363,-28.090909090909086,-42.755102040816325
569,20.886025905609127,27.84666855400428,921.8680400929996,-12.00922359,1.91229675,0.726672765,62.454545454545446,-28.63636363636364,-36.734693877551024
570,20.922861099243164,27.851083159446723,921.7805201057496,-12.00922359,1.91229675,0.726672765,62.454545454545446,-28.63636363636364,-29.59183673469388
571,20.96009922027588,27.84666855400428,921.8196031506696,-12.54466668,-4.20705285,-4.05406911,63.27272727272727,-25.272727272727277,-29.59183673469388
572,20.994712114334106,27.84666855400428,921.8884150820505,-12.54466668,-4.20705285,-4.05406911,63.09090909090908,-28.090909090909086,-31.938775510204085
573,21.031976222991943,27.851083159446723,921.9274978502441,-12.54466668,-4.20705285,-4.05406911,63.09090909090908,-28.090909090909086,-31.938775510204085
574,21.072858095169067,27.82901008566841,921.9665806489921,-10.823599605,-2.14177236,-0.726672765,61.454545454545446,-27.181818181818173,-45.408163265306115
575,21.109184980392456,27.842253943905234,922.0744731216768,-10.823599605,-2.14177236,-0.726672765,61.454545454545446,-27.181818181818173,-45.408163265306115
576,21.157772064208984,27.8334247097373,921.9869527231576,-11.01482928,-0.344213415,-0.7649187,60.454545454545446,-15.090909090909092,-48.46938775510204
577,21.197612047195438,27.82901008566841,921.9963081081629,-11.01482928,-0.344213415,-0.7649187,61.18181818181817,-5.272727272727272,-36.0204081632653
578,21.23520517349243,27.824595456942916,922.1229121495664,-11.01482928,-0.344213415,-0.7649187,61.18181818181817,-5.272727272727272,-36.0204081632653
579,21.27506995201111,27.837839329149574,921.9963081081629,-11.55027237,4.20705285,-0.038245935,60.90909090909092,-5.0,-25.612244897959183
580,21.30806517601013,27.837839329149574,922.0056634782968,-11.55027237,4.20705285,-0.038245935,60.90909090909092,-5.0,-25.612244897959183
581,21.340208053588867,27.837839329149574,922.0651169998984,-11.55027237,4.20705285,-0.038245935,58.18181818181817,-11.454545454545457,-9.591836734693874
582,21.373703241348263,27.84666855400428,922.2495186614765,-7.496203259999999,0.61193496,0.0,58.18181818181817,-11.454545454545457,-9.591836734693874
583,21.40639996528625,27.84666855400428,922.1619951011135,-7.496203259999999,0.61193496,0.0,53.18181818181818,-31.909090909090914,-2.0408163265306114
584,21.43885707855225,27.84666855400428,922.2010780832255,-7.496203259999999,0.61193496,0.0,53.18181818181818,-31.909090909090914,-2.0408163265306114
585,21.473490953445438,27.842253943905234,922.1416250555185,-7.190235779999999,2.638969515,-2.83019919,48.90909090909091,-42.72727272727273,-3.469387755102041
586,21.506489038467407,27.85549776023254,922.2104352804121,-7.190235779999999,2.638969515,-2.83019919,48.90909090909091,-42.72727272727273,-3.469387755102041
587,21.541353940963745,27.84666855400428,922.2495186614765,-7.190235779999999,-0.9561483750000002,-4.81898781,49.272727272727266,-32.72727272727273,3.469387755102041
588,21.582980155944824,27.84666855400428,922.1619951011135,-8.222876024999998,-0.9561483750000002,-4.81898781,49.272727272727266,-32.72727272727273,3.469387755102041
589,21.621194124221798,27.84666855400428,922.2495186614765,-8.222876024999998,-0.9561483750000002,-4.81898781,53.81818181818183,-21.0,-0.9183673469387756
590,21.659086227416992,27.84666855400428,922.2588762121678,-12.00922359,-3.90108537,-1.109132115,53.81818181818183,-21.0,-0.9183673469387756
591,21.693417072296143,27.84666855400428,922.3574103173523,-12.00922359,-3.90108537,-1.109132115,58.545454545454554,-29.45454545454546,-12.653061224489795
592,21.731441259384155,27.84666855400428,922.3276855153123,-12.00922359,-3.90108537,-1.109132115,58.545454545454554,-29.45454545454546,-12.653061224489795
593,21.771217107772827,27.84666855400428,922.3667689880871,-13.347831314999997,1.30036179,-2.027034555,58.545454545454554,-29.45454545454546,-12.653061224489795
594,21.807709217071533,27.851083159446723,922.4058524914357,-13.347831314999997,1.30036179,-2.027034555,57.272727272727266,-26.909090909090914,-56.93877551020409
595,21.84836506843567,27.85549776023254,922.4058524914357,-13.347831314999997,1.30036179,-2.027034555,57.272727272727266,-26.909090909090914,-56.93877551020409
596,21.88154911994934,27.851083159446723,922.4245705250214,-7.03725204,3.021428865,0.267721545,57.09090909090909,-1.090909090909091,-48.16326530612245
597,21.922726154327393,27.85549776023254,922.4058524914357,-7.03725204,3.021428865,0.267721545,57.09090909090909,-1.090909090909091,-48.16326530612245
598,21.956914901733402,27.851083159446723,922.376127643937,-9.40850001,-0.038245935,0.8414105699999999,57.63636363636364,1.2727272727272727,-20.612244897959183
599,21.997853279113766,27.851083159446723,922.4058524914357,-9.40850001,-0.038245935,0.8414105699999999,57.63636363636364,1.2727272727272727,-20.612244897959183
600,22.03030204772949,27.84666855400428,922.5621868105939,-9.40850001,-0.038245935,0.8414105699999999,55.81818181818183,-24.363636363636367,-4.897959183673469
601,22.06408405303955,27.851083159446723,922.4636547957184,-9.40850001,2.2947561,-2.180018295,55.81818181818183,-24.363636363636367,-4.897959183673469
602,22.06408405303955,27.824595456942916,922.5841864335354,-6.387071144999998,0.8031646349999999,-5.20144716,50.09090909090909,-51.272727272727266,-13.36734693877551
603,22.216744184494015,27.82901008566841,922.554465912586,-6.387071144999998,0.8031646349999999,-5.20144716,51.63636363636363,-46.0,-9.285714285714286
604,22.255868196487423,27.837839329149574,922.6216316398403,-6.387071144999998,0.8031646349999999,-5.20144716,51.63636363636363,-46.0,-9.285714285714286
605,22.286686897277832,27.842253943905234,922.7091596328122,-7.534449194999999,-2.21826423,-6.8842683,54.81818181818183,-40.545454545454554,-10.816326530612244
606,22.323539972305294,27.84666855400428,922.7185216190572,-7.534449194999999,-2.21826423,-6.8842683,54.81818181818183,-40.545454545454554,-10.816326530612244
607,22.357543230056763,27.84666855400428,922.6794378710632,-7.534449194999999,-2.21826423,-6.8842683,57.09090909090909,-45.545454545454554,-26.020408163265312
608,22.391710042953488,27.85549776023254,922.7372455468583,-11.129567084999998,-1.37685366,-2.103526425,57.09090909090909,-45.545454545454554,-26.020408163265312
609,22.430640220642086,27.851083159446723,922.7278835904063,-11.129567084999998,-1.37685366,-2.103526425,51.63636363636363,-44.90909090909091,-55.71428571428572
610,22.469838142395016,27.85549776023254,922.8060519149425,-12.276945134999997,1.37685366,3.44213415,51.63636363636363,-44.90909090909091,-72.65306122448979
611,22.50613808631897,27.84666855400428,922.7185216190572,-12.276945134999997,1.37685366,3.44213415,44.36363636363637,-18.181818181818183,-72.65306122448979
612,22.537134170532223,27.84666855400428,922.8842203618458,-12.276945134999997,1.37685366,3.44213415,46.272727272727266,13.272727272727273,-51.42857142857142
613,22.57959198951721,27.851083159446723,922.8748569169295,-8.79656505,1.262115855,-0.191229675,46.272727272727266,13.272727272727273,-51.42857142857142
614,22.616237163543698,27.85549776023254,922.9623889311296,-8.79656505,1.262115855,-0.191229675,50.09090909090909,9.909090909090908,-12.448979591836732
615,22.656594276428223,27.84666855400428,922.8842203618458,-8.79656505,1.262115855,-0.191229675,50.09090909090909,9.909090909090908,-12.448979591836732
616,22.690702199935917,27.851083159446723,922.9530247494271,-9.02604066,2.180018295,1.950542685,48.09090909090909,-12.272727272727273,6.93877551020408
617,22.72553491592407,27.851083159446723,922.9530247494271,-9.02604066,2.180018295,1.950542685,48.09090909090909,-12.272727272727273,6.93877551020408
618,22.762216329574585,27.84666855400428,922.9436605528211,-9.02604066,2.180018295,1.950542685,37.54545454545453,-26.0,15.510204081632653
619,22.796120166778564,27.842253943905234,922.982744146571,-8.03164635,0.038245935,-3.327396345,37.54545454545453,-26.0,15.510204081632653
620,22.830896139144897,27.837839329149574,923.0218277709199,-8.03164635,0.038245935,-3.327396345,22.909090909090914,-30.090909090909086,22.448979591836732
621,22.868256092071533,27.84666855400428,923.0906294263264,-8.03164635,0.038245935,-7.7256788699999985,22.909090909090914,-30.090909090909086,19.387755102040817
622,22.90753507614136,27.84666855400428,923.031192704316,-12.16220733,-1.30036179,-7.7256788699999985,20.181818181818176,-40.0,19.387755102040817
623,22.9459011554718,27.842253943905234,923.0999951114211,-12.16220733,-1.30036179,-7.7256788699999985,23.363636363636367,-51.0,10.918367346938776
624,22.979058265686035,27.851083159446723,923.0999951114211,-11.817993915,0.8031646349999999,-5.316184965000001,23.363636363636367,-51.0,10.918367346938776
625,23.019249200820923,27.842253943905234,923.187528981321,-11.817993915,0.8031646349999999,-5.316184965000001,27.545454545454547,-54.454545454545446,7.346938775510205
626,23.05633306503296,27.842253943905234,923.1187264368898,-11.817993915,0.8031646349999999,-5.316184965000001,27.545454545454547,-54.454545454545446,7.346938775510205
627,23.093364000320435,27.84666855400428,923.1968953733933,-7.228481715,0.91790244,-2.715461385,35.81818181818181,-58.545454545454554,-2.4489795918367343
628,23.130259037017822,27.84666855400428,923.235979887556,-7.228481715,0.91790244,-2.715461385,35.81818181818181,-58.545454545454554,-2.4489795918367343
629,23.164523124694824,27.851083159446723,923.1968953733933,-7.228481715,0.91790244,-2.715461385,40.36363636363636,-61.18181818181817,-14.489795918367344
630,23.202928066253666,27.842253943905234,923.2656973034638,-8.873056919999998,3.44213415,2.944936995,40.36363636363636,-58.09090909090908,-11.326530612244898
631,23.24491310119629,27.85549776023254,923.3438657480499,-8.873056919999998,3.44213415,2.944936995,42.36363636363637,-58.09090909090908,-11.326530612244898
632,23.276642084121704,27.84666855400428,923.2954139982735,-8.873056919999998,3.44213415,2.944936995,42.36363636363637,-58.09090909090908,3.9795918367346936
633,23.310209035873413,27.84666855400428,923.373581767288,-10.173418709999998,0.8031646349999999,-1.91229675,42.63636363636364,-43.72727272727273,3.9795918367346936
634,23.344413995742805,27.84666855400428,923.4220343150932,-10.173418709999998,0.8031646349999999,-1.91229675,42.63636363636364,-33.27272727272727,10.816326530612244
635,23.379282236099243,27.84666855400428,923.3344978674737,-10.173418709999998,0.8031646349999999,-1.91229675,41.090909090909086,-33.27272727272727,10.816326530612244
636,23.412989139556885,27.851083159446723,923.3438657480499,-11.01482928,-0.573689025,-6.081103665000001,41.090909090909086,-48.0,1.530612244897959
637,23.450110912323,27.837839329149574,923.4704876153977,-11.01482928,-0.573689025,-6.081103665000001,42.090909090909086,-48.0,1.530612244897959
638,23.486418247222897,27.84666855400428,923.4330116424626,-11.01482928,-0.573689025,-2.52423171,45.909090909090914,-52.90909090909091,-9.081632653061224
639,23.520693063735962,27.84666855400428,923.4126656977179,-7.381465455,4.092315045,-2.52423171,45.909090909090914,-52.90909090909091,-9.081632653061224
640,23.553315162658688,27.84666855400428,923.4704876153977,-7.381465455,4.092315045,-2.52423171,50.272727272727266,-44.72727272727273,-7.959183673469387
641,23.584300041198727,27.84666855400428,923.4908336504302,-7.381465455,4.092315045,-2.90669106,50.272727272727266,-44.72727272727273,-7.959183673469387
642,23.62081217765808,27.842253943905234,923.6080858091552,-9.370254075,2.409493905,-2.90669106,54.09090909090909,-24.363636363636367,-2.9591836734693886
643,23.65808510780335,27.837839329149574,923.5690017256239,-9.370254075,2.409493905,-2.90669106,54.09090909090909,-24.363636363636367,-2.9591836734693886
644,23.696390151977532,27.837839329149574,923.5690017256239,-12.353437005000004,-2.83019919,-1.91229675,55.63636363636364,-9.454545454545457,-7.653061224489795
645,23.729279041290283,27.837839329149574,923.5893448456263,-12.353437005000004,-2.83019919,-1.91229675,55.63636363636364,-9.454545454545457,-7.653061224489795
646,23.762186050415043,27.837839329149574,923.7550505016281,-12.353437005000004,-2.83019919,-1.91229675,56.90909090909091,-11.727272727272727,-8.673469387755102
647,23.799571037292484,27.837839329149574,923.637799080604,-10.594123995,0.99439431,-4.51302033,56.90909090909091,-11.727272727272727,-8.673469387755102
648,23.836697101593018,27.8334247097373,923.6768828569833,-10.594123995,0.99439431,-4.51302033,57.545454545454554,-21.363636363636363,-7.448979591836735
649,23.86971497535705,27.82901008566841,923.6878518359003,-10.594123995,0.99439431,-4.51302033,57.545454545454554,-21.363636363636363,-7.448979591836735
650,23.90852308273315,27.82901008566841,923.7065950695496,-8.605335375,1.30036179,-6.50180895,57.72727272727273,-22.0,-7.244897959183674
651,23.94567394256592,27.82901008566841,923.8723021983344,-8.605335375,1.30036179,-6.50180895,57.72727272727273,-22.0,-7.244897959183674
652,23.978373050689697,27.837839329149574,923.8035066862248,-8.605335375,1.30036179,-6.50180895,58.72727272727273,-15.18181818181818,-10.918367346938776
653,24.01216316223144,27.842253943905234,923.725338243508,-7.916908544999998,-2.75370732,-3.44213415,58.72727272727273,-15.18181818181818,-10.918367346938776
654,24.04387307167053,27.842253943905234,923.8519636233376,-7.916908544999998,-2.75370732,-3.44213415,59.0,-12.090909090909092,-11.428571428571427
655,24.076231956481937,27.842253943905234,923.8035066862248,-7.916908544999998,-2.75370732,-3.44213415,59.0,-12.090909090909092,-11.428571428571427
656,24.110898971557617,27.84666855400428,923.8816752514753,-11.16781302,-1.338607725,-2.485985775,57.72727272727273,-15.18181818181818,-7.244897959183674
657,24.14685797691345,27.842253943905234,923.9020127220288,-11.16781302,-1.338607725,-2.485985775,57.72727272727273,-14.72727272727273,-2.8571428571428568
658,24.187540054321286,27.8334247097373,923.9614316060879,-11.16781302,-1.338607725,-2.485985775,54.727272727272734,-14.72727272727273,-2.8571428571428568
659,24.221651077270508,27.82901008566841,924.0974311404452,-9.33200814,-1.4150995949999998,-2.37124797,52.90909090909091,-5.909090909090908,-2.5510204081632644
660,24.255506992340088,27.82901008566841,923.9801799974717,-9.33200814,-1.4150995949999998,-2.37124797,52.90909090909091,-5.909090909090908,-2.5510204081632644
661,24.294158220291134,27.824595456942916,924.0192636811532,-9.33200814,-1.4150995949999998,-2.37124797,53.545454545454525,-0.36363636363636365,-7.653061224489795
662,24.327991008758545,27.82901008566841,923.9614316060879,-8.834810985,-1.6063292699999998,0.267721545,53.545454545454525,-0.36363636363636365,-7.653061224489795
663,24.361333131790165,27.82901008566841,924.0192636811532,-8.834810985,-1.6063292699999998,0.267721545,54.272727272727266,-0.4545454545454545,-9.081632653061224
664,24.396119117736816,27.8334247097373,924.0395975304466,-8.834810985,-1.6063292699999998,0.267721545,54.272727272727266,-0.4545454545454545,-9.081632653061224
665,24.433722257614132,27.82901008566841,924.1083878856384,-8.758319115,-0.8031646349999999,2.14177236,52.545454545454554,-2.363636363636364,-4.6938775510204085
666,24.47617197036743,27.81576618552208,924.07868053859,-8.758319115,-0.8031646349999999,2.14177236,52.545454545454554,-2.363636363636364,-4.6938775510204085
667,24.508342027664185,27.8201808235608,924.1568466468127,-10.594123995,-2.2947561,-1.262115855,46.81818181818183,-6.545454545454546,5.816326530612245
668,24.54521608352661,27.824595456942916,924.1959297468952,-10.594123995,-2.2947561,-1.262115855,46.81818181818183,-6.545454545454546,5.816326530612245
669,24.58400201797485,27.824595456942916,924.2256360806413,-10.594123995,-2.2947561,-1.262115855,39.81818181818183,-17.727272727272727,10.816326530612244
670,24.620153188705444,27.82901008566841,924.1959297468952,-13.0036179,-0.68842683,-5.660398379999999,39.81818181818183,-29.54545454545454,9.591836734693874
671,24.654346942901608,27.824595456942916,924.2647188736084,-13.0036179,-0.68842683,-5.660398379999999,41.090909090909086,-29.54545454545454,9.591836734693874
672,24.69403004646301,27.8201808235608,924.3522624537383,-13.0036179,-0.68842683,-5.660398379999999,46.0,-34.54545454545454,5.0
673,24.727801084518433,27.82901008566841,924.3131792310472,-11.588518305000003,-0.22947561,-1.568083335,46.0,-34.54545454545454,5.0
674,24.76494097709656,27.8201808235608,924.3131792310472,-11.588518305000003,-0.22947561,-1.568083335,49.272727272727266,-42.36363636363637,-3.7755102040816326
675,24.80055904388428,27.824595456942916,924.3913457070854,-11.588518305000003,-0.191229675,-1.262115855,49.272727272727266,-42.36363636363637,-3.7755102040816326
676,24.84216499328613,27.82901008566841,924.4007239627994,-10.135172775000001,-0.191229675,-1.262115855,48.63636363636364,-54.727272727272734,-17.755102040816322
677,24.87648797035217,27.82901008566841,924.3913457070854,-10.135172775000001,-0.191229675,-1.262115855,48.63636363636364,-54.727272727272734,-17.755102040816322
678,24.91577816009521,27.81576618552208,924.3913457070854,-11.894485784999997,3.097920735,-2.06528049,46.727272727272734,-59.09090909090908,-37.44897959183673
679,24.952685117721558,27.82901008566841,924.4304289910905,-11.894485784999997,3.097920735,-2.06528049,46.727272727272734,-56.45454545454546,-43.67346938775511
680,24.989701271057125,27.824595456942916,924.5476790270687,-11.894485784999997,3.097920735,-2.06528049,47.545454545454554,-56.45454545454546,-43.67346938775511
681,25.026437044143677,27.82901008566841,924.5085956510804,-11.93273172,1.262115855,0.573689025,52.18181818181818,-52.454545454545446,-35.61224489795918
682,25.059538125991825,27.82901008566841,924.5867624337216,-11.93273172,1.262115855,0.573689025,52.18181818181818,-52.454545454545446,-35.61224489795918
683,25.113631010055535,27.82901008566841,924.6164653898701,-11.93273172,-0.9561483750000002,0.267721545,55.90909090909091,-48.0,-27.755102040816322
684,25.151477098464962,27.82901008566841,924.5680021932765,-7.687432934999999,-0.9561483750000002,0.267721545,55.90909090909091,-45.36363636363636,-26.632653061224488
685,25.19162487983704,27.82901008566841,924.7133940407451,-7.687432934999999,-0.9561483750000002,0.267721545,57.18181818181817,-45.36363636363636,-26.632653061224488
686,25.22504210472107,27.82901008566841,924.761859495022,-8.72007318,0.038245935,-2.868445125,57.18181818181817,-46.63636363636364,-31.12244897959184
687,25.258475065231323,27.82901008566841,924.6258458710405,-8.72007318,0.038245935,-2.868445125,56.727272727272734,-46.63636363636364,-31.12244897959184
688,25.298303127288815,27.8201808235608,924.6352263372632,-8.72007318,0.038245935,-2.868445125,56.999999999999986,-45.27272727272727,-37.95918367346938
689,25.33524298667908,27.842253943905234,924.6446067885355,-12.276945134999997,1.644575205,0.38245935,56.999999999999986,-45.27272727272727,-37.95918367346938
690,25.37249207496643,27.82901008566841,924.8009437918622,-12.276945134999997,1.644575205,0.38245935,58.545454545454554,-42.90909090909091,-35.408163265306115
691,25.404837131500244,27.837839329149574,924.8009437918622,-12.276945134999997,1.644575205,0.38245935,58.545454545454554,-42.90909090909091,-35.408163265306115
692,25.446532249450684,27.837839329149574,924.8009437918622,-12.54466668,0.53544309,1.338607725,60.454545454545446,-39.18181818181818,-30.20408163265306
693,25.4827709197998,27.837839329149574,924.8197075968899,-12.54466668,0.53544309,1.338607725,60.454545454545446,-39.18181818181818,-30.20408163265306
694,25.51341223716736,27.84666855400428,924.7415375602114,-12.54466668,0.53544309,1.338607725,61.27272727272727,-32.18181818181818,-23.6734693877551
695,25.54992413520813,27.837839329149574,924.8103257018548,-8.528843504999998,-0.114737805,-1.45334553,61.27272727272727,-32.18181818181818,-20.918367346938776
696,25.59226107597351,27.842253943905234,925.015133225445,-8.528843504999998,-0.114737805,-1.45334553,61.72727272727273,-26.81818181818182,-20.918367346938776
697,25.625176191329956,27.842253943905234,924.8791124775694,-8.528843504999998,-0.038245935,-0.53544309,61.72727272727273,-26.81818181818182,-20.918367346938776
698,25.658081054687496,27.842253943905234,924.8681749097348,-11.93273172,-0.038245935,-0.53544309,62.18181818181817,-24.818181818181817,-21.12244897959184
699,25.697066068649285,27.84666855400428,924.907260373182,-11.93273172,-0.038245935,-0.53544309,61.90909090909092,-24.090909090909086,-20.306122448979586
700,25.734942913055416,27.84666855400428,925.063602533785,-12.735896355,1.338607725,-0.8031646349999999,61.90909090909092,-24.090909090909086,-20.306122448979586
701,25.772114276885983,27.84666855400428,925.0245169476087,-12.735896355,1.338607725,-0.8031646349999999,61.0,-21.72727272727273,-15.918367346938775
702,25.805300951004025,27.84666855400428,925.1026881506472,-12.735896355,1.338607725,-0.8031646349999999,61.0,-21.72727272727273,-15.918367346938775
703,25.837869167327877,27.84666855400428,925.1511586106493,-6.769530495000001,0.61193496,-0.879656505,59.18181818181817,-13.454545454545457,-12.959183673469388
704,25.87876605987549,27.851083159446723,925.1323889707752,-6.769530495000001,0.61193496,-0.879656505,59.18181818181817,-13.454545454545457,-12.959183673469388
705,25.91726803779602,27.851083159446723,925.1417737981976,-6.769530495000001,0.61193496,-0.879656505,57.72727272727273,-2.727272727272727,-14.387755102040815
706,25.950830221176147,27.84666855400428,925.1323889707752,-8.834810985,-0.573689025,-0.650180895,57.72727272727273,-2.727272727272727,-14.387755102040815
707,25.985146045684814,27.85549776023254,925.3075029814415,-8.834810985,-0.573689025,-0.650180895,55.63636363636364,4.727272727272728,-18.97959183673469
708,26.02273297309876,27.85549776023254,925.2293307346588,-8.834810985,-0.573689025,-0.650180895,55.63636363636364,4.727272727272728,-18.97959183673469
709,26.055583953857425,27.84666855400428,925.2293307346588,-13.500815055,0.573689025,-0.91790244,54.0,8.454545454545455,-21.12244897959184
710,26.095711946487423,27.851083159446723,925.2199451853685,-13.500815055,0.573689025,-0.91790244,54.0,12.636363636363635,-25.40816326530612
711,26.132590055465695,27.84666855400428,925.2387162689753,-13.500815055,0.573689025,-0.91790244,51.36363636363637,12.636363636363635,-25.40816326530612
712,26.167378187179565,27.851083159446723,925.2684168427029,-12.965371965,0.0,-0.53544309,47.63636363636364,17.81818181818182,-30.20408163265306
713,26.207939147949215,27.84666855400428,925.3856753510112,-12.965371965,0.0,-0.53544309,47.63636363636364,17.81818181818182,-30.20408163265306
714,26.24163198471069,27.85549776023254,925.327815826797,-9.064286595,-1.032640245,0.15298374,43.27272727272727,21.545454545454543,-31.938775510204085
715,26.276127099990845,27.851083159446723,925.4544600835623,-9.064286595,-1.032640245,0.15298374,43.27272727272727,21.545454545454543,-31.938775510204085
716,26.31623411178589,27.85549776023254,925.3950623590052,-9.064286595,-1.032640245,0.15298374,41.36363636363637,22.909090909090914,-24.081632653061224
717,26.351077079772946,27.84666855400428,925.3762883280376,-7.41971139,-0.7649187,-0.573689025,41.36363636363637,22.909090909090914,-24.081632653061224
718,26.389549016952515,27.851083159446723,925.3669012900866,-7.41971139,-0.7649187,-0.573689025,39.81818181818183,20.0,-9.591836734693874
719,26.425215005874637,27.84666855400428,925.3856753510112,-7.41971139,-0.7649187,-0.573689025,39.81818181818183,20.0,-9.591836734693874
720,26.455987930297848,27.851083159446723,925.5232434502515,-8.4141057,-1.07088618,-2.485985775,38.545454545454554,11.18181818181818,3.9795918367346936
721,26.491578102111813,27.84666855400428,925.5420204585607,-8.4141057,-1.07088618,-2.485985775,38.545454545454554,11.18181818181818,3.9795918367346936
722,26.522485017776486,27.84666855400428,925.5029341356177,-8.4141057,-1.07088618,-2.485985775,39.36363636363636,-1.2727272727272727,11.122448979591837
723,26.56279492378235,27.84666855400428,925.5232434502515,-8.146384154999998,-1.22386992,-2.103526425,39.36363636363636,-1.2727272727272727,13.06122448979592
724,26.599345207214355,27.85549776023254,925.5232434502515,-8.146384154999998,-1.22386992,-2.103526425,41.90909090909091,-16.0,13.06122448979592
725,26.641180276870728,27.837839329149574,925.5623290670527,-8.146384154999998,0.8031646349999999,-3.939331305,45.545454545454554,-35.54545454545454,6.53061224489796
726,26.676167964935303,27.842253943905234,925.6889760870525,-9.370254075,0.8031646349999999,-3.939331305,45.545454545454554,-35.54545454545454,6.53061224489796
727,26.71530222892761,27.84666855400428,925.6014147145603,-9.370254075,0.8031646349999999,-3.939331305,50.63636363636363,-48.545454545454554,-10.816326530612244
728,26.749465227127075,27.84666855400428,925.7280621951181,-11.665010175,0.68842683,-2.06528049,50.63636363636363,-48.545454545454554,-10.816326530612244
729,26.78659415245056,27.837839329149574,925.7671483338979,-11.665010175,0.68842683,-2.06528049,56.09090909090909,-47.18181818181817,-26.020408163265312
730,26.81896615028381,27.85549776023254,925.6795861017043,-11.665010175,0.68842683,-2.06528049,56.09090909090909,-47.18181818181817,-26.020408163265312
731,26.85605716705322,27.84666855400428,925.7374525339039,-13.080109770000004,-0.61193496,-1.4150995949999998,59.545454545454554,-40.18181818181817,-38.36734693877551
732,26.895909070968628,27.842253943905234,925.8265377705018,-13.080109770000004,-0.61193496,-1.4150995949999998,59.545454545454554,-40.18181818181817,-38.36734693877551
733,26.93607807159424,27.842253943905234,925.8562314071085,-13.080109770000004,-0.61193496,-1.4150995949999998,59.545454545454554,-40.18181818181817,-38.36734693877551
734,26.972681999206543,27.837839329149574,925.8359292445496,-11.320796759999999,0.344213415,-0.879656505,60.72727272727273,-14.09090909090909,-46.122448979591844
735,27.007554054260257,27.8334247097373,925.923493196192,-11.320796759999999,0.344213415,-0.879656505,60.72727272727273,-14.09090909090909,-46.122448979591844
736,27.048355102539066,27.837839329149574,925.9344017505545,-9.48499188,0.22947561,-2.103526425,60.72727272727273,-5.272727272727272,-35.918367346938766
737,27.08840012550354,27.842253943905234,925.8953165634707,-9.48499188,0.22947561,-2.103526425,60.72727272727273,-5.272727272727272,-35.918367346938766
738,27.122847080230713,27.84666855400428,925.9141010002772,-9.48499188,0.22947561,-2.103526425,60.0,-4.454545454545455,-24.387755102040817
739,27.155845165252686,27.84666855400428,926.0016658116662,-7.649187,0.53544309,-2.52423171,60.0,-4.454545454545455,-24.387755102040817
740,27.18952703475952,27.84666855400428,926.0313588642867,-7.649187,0.53544309,-2.52423171,58.81818181818181,-7.545454545454548,-15.0
741,27.222381114959717,27.851083159446723,926.0016658116662,-7.649187,0.53544309,-2.52423171,58.81818181818181,-7.545454545454548,-15.0
742,27.256368160247803,27.84666855400428,926.0110587294431,-7.916908544999998,0.8031646349999999,-3.44213415,57.999999999999986,-11.545454545454545,-10.714285714285712
743,27.294603109359738,27.842253943905234,926.0704448804082,-7.916908544999998,0.8031646349999999,-3.44213415,57.999999999999986,-11.545454545454545,-10.714285714285712
744,27.33048820495605,27.842253943905234,926.0892322046783,-7.916908544999998,0.8031646349999999,-3.44213415,59.0,-14.81818181818182,-11.93877551020408
745,27.370948076248165,27.84666855400428,926.1674058028312,-8.79656505,-0.114737805,-3.327396345,59.0,-14.81818181818182,-15.612244897959185
746,27.404539108276367,27.85549776023254,926.2455795239141,-8.79656505,-0.114737805,-3.327396345,60.63636363636363,-17.363636363636363,-15.612244897959185
747,27.437482118606567,27.85549776023254,926.1877031131488,-8.79656505,-0.114737805,-3.327396345,60.63636363636363,-17.454545454545457,-22.857142857142854
748,27.477426290512085,27.851083159446723,926.254974637267,-9.40850001,0.8414105699999999,-0.573689025,62.545454545454554,-17.454545454545457,-22.857142857142854
749,27.51402711868286,27.842253943905234,926.1486170048373,-9.40850001,0.8414105699999999,-0.573689025,62.545454545454554,-14.545454545454543,-29.081632653061224
750,27.55537724494934,27.84666855400428,926.3049616224895,-9.40850001,0.8414105699999999,1.68282114,62.545454545454554,-14.545454545454543,-29.081632653061224
751,27.592844009399407,27.851083159446723,926.217394093829,-8.987794725,0.8031646349999999,1.68282114,62.0,-9.818181818181818,-27.653061224489797
752,27.625770092010494,27.84666855400428,926.236184395556,-8.987794725,0.8031646349999999,1.68282114,62.0,-9.818181818181818,-27.653061224489797
753,27.660526037216187,27.84666855400428,926.3049616224895,-8.987794725,0.650180895,-0.45895122,60.0,-7.181818181818184,-18.775510204081634
754,27.698179006576538,27.85549776023254,926.344047853744,-11.4737805,0.650180895,-0.45895122,60.0,-7.181818181818184,-18.775510204081634
755,27.735911130905148,27.84666855400428,926.3925307328352,-11.4737805,0.650180895,-0.45895122,56.18181818181817,-7.272727272727272,-6.93877551020408
756,27.771424055099487,27.84666855400428,926.4801014248759,-12.2386992,0.07649187,-3.21265854,56.18181818181817,-7.272727272727272,-6.93877551020408
757,27.805915117263794,27.84666855400428,926.4707040859201,-12.2386992,0.07649187,-3.21265854,52.454545454545446,-8.90909090909091,-0.9183673469387756
758,27.844223022460934,27.84666855400428,926.3534441024069,-12.2386992,0.07649187,-3.21265854,52.09090909090909,-12.727272727272727,0.816326530612245
759,27.888526201248162,27.842253943905234,926.3737374836338,-11.894485784999997,-0.497197155,-1.721067075,52.09090909090909,-12.727272727272727,0.816326530612245
760,27.922868967056274,27.84666855400428,926.5394794711474,-11.894485784999997,-0.497197155,-1.721067075,52.63636363636364,-19.272727272727277,1.3265306122448979
761,27.96257305145264,27.837839329149574,926.6176523333337,-11.894485784999997,-0.497197155,-1.721067075,52.63636363636364,-19.272727272727277,1.3265306122448979
762,27.99567413330078,27.842253943905234,926.6270511610464,-10.823599605,-0.114737805,-0.497197155,52.272727272727266,-28.909090909090907,0.3061224489795918
763,28.02668428421021,27.837839329149574,926.6176523333337,-10.823599605,-0.114737805,-0.497197155,52.272727272727266,-28.909090909090907,0.3061224489795918
764,28.062512159347534,27.842253943905234,926.5879643461411,-10.823599605,-0.114737805,-0.497197155,51.09090909090909,-39.36363636363636,-2.3469387755102042
765,28.093576908111572,27.84666855400428,926.6473395993875,-9.714467489999999,0.61193496,-1.185623985,51.09090909090909,-39.36363636363636,-2.3469387755102042
766,28.136583089828488,27.837839329149574,926.6473395993875,-9.714467489999999,0.61193496,-1.185623985,49.272727272727266,-45.909090909090914,-5.918367346938777
767,28.168594121932987,27.84666855400428,926.6958253185253,-8.528843504999998,0.61193496,-2.52423171,49.272727272727266,-45.909090909090914,-5.918367346938777
768,28.205363988876346,27.837839329149574,926.6770261443,-8.528843504999998,0.61193496,-2.52423171,48.81818181818182,-48.90909090909091,-7.755102040816326
769,28.247745037078854,27.84666855400428,926.7739984267354,-8.528843504999998,0.61193496,-2.52423171,49.90909090909091,-48.36363636363637,-10.0
770,28.28388929367065,27.84666855400428,926.6958253185253,-9.370254075,0.114737805,-2.2947561,49.90909090909091,-48.36363636363637,-10.0
771,28.320329904556278,27.842253943905234,926.7146244326832,-9.370254075,0.114737805,-2.2947561,51.72727272727272,-47.09090909090909,-11.93877551020408
772,28.355427026748657,27.84666855400428,926.7833987282008,-9.370254075,0.114737805,-2.2947561,51.72727272727272,-47.09090909090909,-11.93877551020408
773,28.391399145126343,27.84666855400428,926.8318863517638,-9.79095936,0.038245935,-0.420705285,53.18181818181818,-47.272727272727266,-14.183673469387758
774,28.42867517471313,27.851083159446723,926.8521716579775,-9.79095936,0.038245935,-0.420705285,53.18181818181818,-47.272727272727266,-14.183673469387758
775,28.470617055892948,27.84666855400428,926.8521716579775,-9.79095936,0.038245935,-0.420705285,53.727272727272734,-47.545454545454554,-15.30612244897959
776,28.50415301322937,27.84666855400428,926.8615726963217,-10.670615864999998,0.497197155,-0.726672765,53.727272727272734,-47.545454545454554,-15.30612244897959
777,28.537702083587646,27.84666855400428,926.8912583197389,-10.670615864999998,0.497197155,-0.726672765,53.727272727272734,-46.0,-13.265306122448978
778,28.57604503631592,27.851083159446723,926.7927990146455,-10.670615864999998,0.497197155,-0.726672765,53.727272727272734,-46.0,-13.265306122448978
779,28.60805106163025,27.85549776023254,926.8803747279393,-11.703256109999996,-0.344213415,-2.37124797,53.90909090909091,-43.90909090909091,-11.63265306122449
780,28.64569592475891,27.851083159446723,926.919462495018,-11.703256109999996,-0.344213415,-2.37124797,53.90909090909091,-43.90909090909091,-11.63265306122449
781,28.678944110870365,27.85549776023254,926.9679520230042,-11.053075215,0.0,-2.90669106,53.90909090909091,-44.72727272727273,-11.93877551020408
